"Time (s)","Linear Acceleration x (m/s^2)","Linear Acceleration y (m/s^2)","Linear Acceleration z (m/s^2)","Absolute acceleration (m/s^2)"
3.765829800E-2,0.000000000E0,0.000000000E0,0.000000000E0,0.000000000E0
4.242970500E-2,1.867465973E-1,1.044416428E-2,2.316498756E-1,2.977331642E-1
4.720043400E-2,4.070994854E-1,-2.090549469E-2,4.767184258E-1,6.272379837E-1
5.197189200E-2,5.833339691E-1,-1.399133205E-1,6.715412140E-1,9.004564725E-1
5.674423600E-2,7.159173489E-1,-2.969343662E-1,7.541818619E-1,1.081433285E0
6.151564200E-2,8.239072561E-1,-4.322407246E-1,7.818899155E-1,1.215321789E0
6.628637100E-2,8.418126106E-1,-5.205852985E-1,7.431421280E-1,1.237706648E0
7.105783000E-2,8.613297939E-1,-6.272411346E-1,6.755924225E-1,1.261643997E0
7.583017300E-2,8.634251356E-1,-7.910935879E-1,5.141487122E-1,1.278937421E0
8.060158000E-2,8.943895698E-1,-1.152892470E0,2.301092148E-1,1.477174330E0
8.537230900E-2,2.078428268E-1,-1.240059614E0,1.701419830E0,2.115602970E0
9.014376700E-2,-6.433274746E-1,-1.140271068E0,2.191684723E0,2.552953245E0
9.491611100E-2,-6.576694250E-1,-1.608514309E0,1.144613266E0,2.080862053E0
9.968751700E-2,-7.921714783E-1,-1.879900813E0,1.389793396E0,2.468418198E0
1.044582460E-1,-8.400155306E-1,-1.827909470E0,1.252059937E0,2.369500624E0
1.092297050E-1,-7.005714178E-1,-1.586511850E0,1.096288681E0,2.051747800E0
1.140019960E-1,-5.107115507E-1,-1.315991640E0,9.754276276E-1,1.715843624E0
1.187734550E-1,-3.739497662E-1,-9.827096462E-1,9.041109085E-1,1.386713096E0
1.235441320E-1,-3.794986606E-1,-6.005085111E-1,1.103280067E0,1.312195341E0
1.283156940E-1,-3.760818839E-1,-1.843144298E-1,1.268838882E0,1.336174203E0
1.330879340E-1,-2.841356993E-1,1.946500242E-1,1.373064995E0,1.415602065E0
1.378593920E-1,-1.846255064E-1,5.480301976E-1,1.343297005E0,1.462487784E0
1.426300690E-1,-1.830496192E-1,7.315282822E-1,1.406907082E0,1.596254468E0
1.474016320E-1,-1.373292208E-1,5.410909057E-1,2.707288742E0,2.764245108E0
1.521738710E-1,-3.061952889E-1,5.333617926E-1,3.312078476E0,3.368693246E0
1.569453300E-1,-3.783851862E-2,6.570291519E-1,1.349417686E0,1.501348445E0
1.617160070E-1,2.625283003E-1,7.202987075E-1,2.296848297E-1,8.003164733E-1
1.664875690E-1,4.805973172E-1,7.735661864E-1,-4.846773148E-1,1.031644573E0
1.712598090E-1,4.374466538E-1,8.709251285E-1,-7.031822205E-1,1.201805055E0
1.760312670E-1,4.750495553E-1,5.785692930E-1,-8.247623444E-1,1.113843540E0
1.808019440E-1,7.134746909E-1,3.342601061E-1,-9.314479828E-1,1.219988237E0
1.855735070E-1,5.416154861E-1,5.713016391E-1,-4.693069458E-1,9.165052684E-1
1.903457460E-1,1.764594018E-1,8.372516632E-1,4.085397720E-1,9.481735144E-1
1.951172050E-1,-1.274884343E-1,9.695624113E-1,1.020028114E0,1.413068266E0
1.998878820E-1,-1.937958598E-1,1.043484807E0,1.450600624E0,1.797403557E0
2.046594440E-1,-3.249426484E-1,8.663475513E-1,1.875826836E0,2.091619497E0
2.094316840E-1,-5.624679327E-1,5.166021585E-1,2.636368752E0,2.744756485E0
2.142031420E-1,-5.270432830E-1,8.923083544E-2,1.845728874E0,1.921575354E0
2.189738190E-1,-5.777107477E-1,-4.418119788E-1,7.838029861E-1,1.069249575E0
2.237453820E-1,-5.760870576E-1,-9.797030091E-1,-1.587553024E-1,1.147561558E0
2.285176210E-1,-5.726793408E-1,-1.526942968E0,-7.571811676E-1,1.798009949E0
2.332890800E-1,-6.156624556E-1,-1.833601236E0,-1.125688553E0,2.237925037E0
2.380597570E-1,-7.022212744E-1,-2.057370186E0,-1.209424019E0,2.487688336E0
2.428313190E-1,-1.005392551E0,-2.120854378E0,-1.111091614E0,2.596798423E0
2.476035590E-1,-1.442671776E0,-2.078284264E0,-4.301347733E-1,2.566239127E0
2.523749650E-1,-1.696866512E0,-1.820223331E0,9.286022186E-2,2.490219259E0
2.571456940E-1,-2.380621910E0,-1.565996408E0,1.267614365E-1,2.852327802E0
2.619172570E-1,-2.654441357E0,-1.180604458E0,2.397346497E-2,2.905247068E0
2.666894960E-1,-2.591854572E0,-8.271515369E-1,-2.060413361E-2,2.720719449E0
2.714609550E-1,-2.138303757E0,-5.062938333E-1,-1.044588089E-1,2.199906372E0
2.762316320E-1,-1.554910421E0,-2.942951918E-1,-3.255357742E-1,1.615651453E0
2.810031940E-1,-1.432448149E0,-7.101413012E-1,-8.972358704E-2,1.601330287E0
2.857754340E-1,-9.950696230E-1,-6.506220698E-1,-6.974630356E-1,1.378378511E0
2.905468920E-1,-5.439599752E-1,-3.828908205E-1,-1.541659355E0,1.679050744E0
2.953175690E-1,-2.782102525E-1,4.926466942E-2,-2.049949646E0,2.069328757E0
3.000891320E-1,-1.522760093E-1,5.858343840E-1,-2.412100792E0,2.486889652E0
3.048613710E-1,-1.272820383E-1,1.129807472E0,-2.546087265E0,2.788409224E0
3.096327780E-1,-2.459531426E-1,1.645115733E0,-2.615736008E0,3.099834445E0
3.144035070E-1,-4.356307983E-1,2.034940243E0,-2.607763767E0,3.336343485E0
3.191750690E-1,-6.960705519E-1,2.202262640E0,-2.502053738E0,3.405106144E0
3.239473090E-1,-1.154723883E0,1.942788363E0,-1.275515556E0,2.595140420E0
3.287187150E-1,-1.401764989E0,1.598546743E0,5.718650818E-1,2.201664472E0
3.334894440E-1,-1.254414558E0,1.391141415E0,1.575250626E0,2.447497672E0
3.382609030E-1,-7.348136902E-1,1.345097184E0,-3.116989136E-1,1.564095204E0
3.430332460E-1,-3.317134678E-1,1.261537552E0,-2.113341331E0,2.483489964E0
3.478046530E-1,-3.182986677E-1,1.025936604E0,-2.447776794E0,2.673101418E0
3.525753820E-1,-6.151538491E-1,7.858808041E-1,-1.961771011E0,2.201038027E0
3.573468400E-1,-7.275160551E-1,2.901303768E-1,-1.570322990E0,1.754813249E0
3.621191840E-1,-5.088018179E-1,-2.641283274E-1,-1.977260590E0,2.058689511E0
3.668905900E-1,-2.195337415E-1,-4.172849655E-2,-2.425674915E0,2.435946454E0
3.716613190E-1,-1.259117723E-1,2.252612114E-1,-2.358022690E0,2.372101894E0
3.764327780E-1,-1.993880868E-1,3.333435059E-1,-1.708091736E0,1.751699426E0
3.812051210E-1,-1.774236262E-1,2.255003452E-1,-9.653205872E-1,1.007061758E0
3.859765280E-1,3.374570608E-1,-1.410784721E-1,-9.097757339E-1,9.805469337E-1
3.907472570E-1,1.019296169E0,-9.017447233E-1,-1.677946091E0,2.160465531E0
3.955187150E-1,1.174744248E0,-6.607309580E-1,-1.227424622E0,1.822953825E0
4.002910590E-1,8.291274309E-1,-2.091095448E-1,-1.674699783E-1,8.713353499E-1
4.050624650E-1,2.290837765E-1,1.847586632E-1,5.559797287E-1,6.290696297E-1
4.098331940E-1,-1.446940899E-1,4.979569912E-1,3.517065048E-1,6.265740262E-1
4.146046530E-1,-2.266092300E-1,7.184503078E-1,-2.936830521E-1,8.085618857E-1
4.193769960E-1,-1.721774340E-1,8.029808998E-1,-1.078815460E0,1.355826756E0
4.241484030E-1,5.143487453E-2,7.927837372E-1,-1.932524681E0,2.089450464E0
4.289191320E-1,-6.507933140E-2,7.858927250E-1,-1.926917076E0,2.082035570E0
4.336905900E-1,-2.265870571E-2,8.057041168E-1,-1.680417538E0,1.863726279E0
4.384629340E-1,2.702116966E-3,8.136980534E-1,-1.314461231E0,1.545936658E0
4.432343400E-1,7.551586628E-2,7.171888351E-1,-9.868907928E-1,1.222299435E0
4.480050690E-1,2.336537838E-1,5.809998512E-1,-7.403783798E-1,9.696984393E-1
4.527765280E-1,3.121612072E-1,3.983335495E-1,-6.525230408E-1,8.257727016E-1
4.575488710E-1,3.816463947E-1,1.651799679E-1,-7.172813416E-1,8.291145369E-1
4.623202780E-1,2.443988323E-1,1.484107971E-2,-7.938108444E-1,8.307145741E-1
4.670910070E-1,-7.395267487E-3,-3.631734848E-2,-9.345169067E-1,9.352515644E-1
4.718624650E-1,-3.057394028E-1,5.880022049E-2,-5.776195526E-1,6.561847270E-1
4.766347570E-1,-8.612903357E-1,3.303551674E-1,3.135652542E-1,9.743093695E-1
4.814062150E-1,-1.112462521E0,3.233332634E-1,-1.204853058E-1,1.164746311E0
4.861769440E-1,-1.278784394E0,2.349195480E-1,-2.732820511E-1,1.328593166E0
4.909484030E-1,-2.506892443E0,1.056885719E-1,-6.537218094E-1,2.592881023E0
4.957206940E-1,-7.820285797E0,-2.153787613E-1,-1.136107445E0,7.905314547E0
5.004921530E-1,-1.399065781E1,1.680598259E-1,-6.750125885E-1,1.400794032E1
5.052628300E-1,-1.251551914E1,1.075263500E0,3.710145950E-1,1.256710240E1
5.100343920E-1,-5.027301788E0,9.273955822E-1,-5.515861511E-1,5.141796682E0
5.148066320E-1,-2.157732248E-1,2.319099903E-1,-2.189677715E0,2.212471203E0
5.195780900E-1,1.146173239E0,-4.976789951E-1,-2.925701618E0,3.181371942E0
5.243487670E-1,6.855820417E-1,-8.275097609E-1,-2.728364468E0,2.932365565E0
5.291203300E-1,-3.542321920E-1,-7.558028698E-1,-2.548847675E0,2.682040808E0
5.338925690E-1,-1.265163660E0,-2.244222164E-1,-2.023680210E0,2.397141216E0
5.386640280E-1,-1.637196779E0,1.631860733E-1,-1.694149017E0,2.361606208E0
5.434347050E-1,-1.636660695E0,1.869015694E-1,-1.859334946E0,2.484092766E0
5.482062670E-1,-8.130017519E-1,4.422531128E-1,-2.494707108E0,2.660850093E0
5.529785070E-1,-7.498219013E-1,4.531078339E-1,-3.154167652E0,3.273578038E0
5.577499650E-1,-1.348001480E0,2.247326374E-1,-3.647786140E0,3.895376294E0
5.625206420E-1,-1.941720843E0,8.687329292E-2,-3.917780876E0,4.373423578E0
5.672922050E-1,-2.490087509E0,4.768109322E-2,-3.897168159E0,4.625011238E0
5.720644440E-1,-2.736679792E0,-8.197069168E-3,-3.787580967E0,4.672820675E0
5.768359030E-1,-2.870074987E0,1.088690758E-2,-3.454317093E0,4.491075098E0
5.816065800E-1,-2.967944860E0,1.611614227E-2,-3.051181793E0,4.256602725E0
5.863781420E-1,-3.473495960E0,-1.239423752E0,-3.260259628E0,4.922462622E0
5.911503820E-1,-3.305927753E0,-1.121178269E0,-2.703342915E0,4.415230678E0
5.959218400E-1,-3.137063980E0,-7.798070908E-1,-2.080937862E0,3.844420880E0
6.006925170E-1,-2.740840435E0,-1.228122711E-1,-1.364258766E0,3.064064478E0
6.054640800E-1,-2.775346756E0,4.080910683E-1,-5.907955170E-1,2.866727626E0
6.102363190E-1,-2.883949757E0,5.828170776E-1,-2.848134041E-1,2.956004164E0
6.150077780E-1,-2.973066807E0,1.684563160E-1,-1.545171738E-1,2.981841600E0
6.197784550E-1,-2.905795813E0,-5.209624767E-1,8.945178986E-2,2.953481476E0
6.245500170E-1,-2.587478876E0,-1.121992469E0,3.133831024E-1,2.837626297E0
6.293222570E-1,-2.234215736E0,-1.443288922E0,6.978945732E-1,2.749883580E0
6.340937150E-1,-1.888592124E0,-1.492683172E0,1.303156853E0,2.737352927E0
6.388643920E-1,-1.642819524E0,-1.441984892E0,1.977374554E0,2.947572992E0
6.436359550E-1,-1.512601852E0,-1.406495810E0,2.474618435E0,3.223341624E0
6.484081940E-1,-1.468840361E0,-1.443291187E0,2.828646660E0,3.498831717E0
6.531796530E-1,-1.455341578E0,-1.501860142E0,2.973495007E0,3.635282045E0
6.579503300E-1,-1.424475431E0,-1.505812883E0,2.974776268E0,3.625727036E0
6.627218920E-1,-1.402410746E0,-1.460149050E0,2.921249390E0,3.554221313E0
6.674941320E-1,-1.426968098E0,-1.346084952E0,2.832074165E0,3.445116359E0
6.722655900E-1,-1.410128117E0,-1.104667544E0,2.728887081E0,3.264288037E0
6.770362670E-1,-1.245401382E0,-7.153636217E-1,2.590340137E0,2.961862884E0
6.818078300E-1,-9.287409782E-1,-1.645629406E-1,2.549314976E0,2.718206690E0
6.865800690E-1,-5.785837173E-1,3.735518456E-1,2.610953808E0,2.700255522E0
6.913515280E-1,-3.334655762E-1,8.191516399E-1,2.684702873E0,2.826630188E0
6.961222050E-1,-1.769289970E-1,1.261809349E0,2.749701023E0,3.030564703E0
7.008937670E-1,-1.580767632E-1,1.640449047E0,2.695803165E0,3.159654419E0
7.056660070E-1,-2.042293549E-3,2.181064606E0,2.812982559E0,3.559482808E0
7.104374650E-1,1.424360275E-1,2.489651203E0,3.430879593E0,4.241413198E0
7.152081420E-1,-9.856510162E-2,2.147268772E0,3.799856663E0,4.365706004E0
7.199797050E-1,-3.517556190E-1,1.658194780E0,3.987608910E0,4.332939737E0
7.247519440E-1,-7.073707581E-1,1.038322687E0,3.711352825E0,3.918242870E0
7.295233510E-1,-9.471945763E-1,5.723938942E-1,2.691407204E0,2.910066163E0
7.342940800E-1,-1.143459320E0,2.623233795E-1,1.743051529E0,2.101081009E0
7.390656420E-1,-1.336054802E0,1.545743942E-1,1.342647552E0,1.900431037E0
7.438378820E-1,-1.292089462E0,4.190834761E-1,1.236641407E0,1.836956207E0
7.486092880E-1,-1.726132393E0,2.216013670E-1,1.089424133E0,2.053164666E0
7.533800170E-1,-2.107545853E0,2.377891541E-2,8.900742531E-1,2.287913271E0
7.581515800E-1,-2.423517942E0,-3.277386427E-1,7.167181969E-1,2.548438112E0
7.629238190E-1,-2.549558401E0,-6.387214661E-1,5.686287880E-1,2.689154486E0
7.676952260E-1,-2.432664156E0,-6.801426411E-1,2.562341690E-1,2.538918049E0
7.724659550E-1,-2.328095436E0,-7.124777436E-1,1.133375168E-1,2.437313744E0
7.772375170E-1,-2.384034634E0,-8.304005861E-1,3.306913376E-2,2.524733617E0
7.820097570E-1,-2.463202715E0,-7.875205278E-1,1.223278046E-2,2.586059906E0
7.867811630E-1,-2.382102251E0,-5.328689218E-1,-5.929470062E-2,2.441695371E0
7.915518920E-1,-2.295221806E0,-1.415200233E-1,-1.658120155E-1,2.305550841E0
7.963234550E-1,-2.279538155E0,1.601561308E-1,-1.897315979E-1,2.293020337E0
8.010956940E-1,-2.169932365E0,3.901321888E-1,-1.319212914E-1,2.208667658E0
8.058671010E-1,-2.071594715E0,4.517036676E-1,1.263880730E-1,2.124032677E0
8.106378300E-1,-1.935274124E0,3.910243511E-1,5.090889931E-1,2.038959926E0
8.154092880E-1,-1.782550812E0,1.919629574E-1,9.300541878E-1,2.019737103E0
8.201816320E-1,-1.551839828E0,-6.196963787E-2,1.296697617E0,2.023233006E0
8.249530380E-1,-1.270631313E0,-2.994160652E-1,1.565092564E0,2.038055114E0
8.297237670E-1,-9.883360863E-1,-5.562455058E-1,1.775446892E0,2.106757923E0
8.344952260E-1,-8.187556267E-1,-8.223626018E-1,1.941884995E0,2.262202103E0
8.392675690E-1,-7.941145897E-1,-1.089739680E0,2.092609406E0,2.489410508E0
8.440389760E-1,-9.084672928E-1,-1.355033636E0,2.172372818E0,2.716731977E0
8.488097050E-1,-9.727797508E-1,-1.560466766E0,2.185926914E0,2.856507211E0
8.535811630E-1,-1.020647526E0,-1.703532100E0,2.133488178E0,2.914706639E0
8.583535070E-1,-1.002301693E0,-1.746160269E0,1.986930370E0,2.828705829E0
8.631249130E-1,-9.277925491E-1,-1.714713931E0,1.780239105E0,2.640131465E0
8.678956420E-1,-8.047924042E-1,-1.637671709E0,1.552079201E0,2.395539456E0
8.726671010E-1,-7.047004700E-1,-1.060547590E0,1.792548656E0,2.198771163E0
8.774394440E-1,-6.561579704E-1,-1.461335421E0,1.854032040E0,2.450199849E0
8.822108510E-1,-2.333350182E-1,-1.348438978E0,1.386089325E0,1.947813268E0
8.869815800E-1,8.300018311E-2,-1.500439644E0,1.349141598E0,2.019502713E0
8.917530380E-1,4.272761345E-1,-1.625444412E0,1.383028030E0,2.176557136E0
8.965253820E-1,7.523746490E-1,-1.768716812E0,1.369668007E0,2.360173134E0
9.012967880E-1,1.163717270E0,-1.735106468E0,1.298879147E0,2.460064913E0
9.060675170E-1,1.473364830E0,-1.480700016E0,1.426958084E0,2.529720505E0
9.108389760E-1,1.494456291E0,-1.142560959E0,1.687009335E0,2.526825211E0
9.156113190E-1,1.374190331E0,-8.736034632E-1,1.903301239E0,2.504822884E0
9.203827260E-1,1.280102730E0,-7.449310422E-1,1.972964525E0,2.467017283E0
9.251534550E-1,1.338287354E0,-7.393628359E-1,1.984341621E0,2.505051320E0
9.299249130E-1,1.405073166E0,-8.183763623E-1,1.903868914E0,2.503734673E0
9.346972570E-1,1.392157555E0,-9.339318871E-1,1.784238577E0,2.448231755E0
9.394686630E-1,1.352142334E0,-1.033326626E0,1.642311811E0,2.365003360E0
9.442393920E-1,1.344398499E0,-1.080893636E0,1.476109982E0,2.270383019E0
9.490108510E-1,1.328166008E0,-9.413865805E-1,1.326127052E0,2.099725362E0
9.537831940E-1,1.327348709E0,-3.876003027E-1,1.584806681E0,2.103259567E0
9.585546010E-1,1.167612076E0,-7.360540032E-1,1.376476765E0,1.949302885E0
9.633253300E-1,1.323217392E0,-7.911387682E-1,8.546755314E-1,1.762746460E0
9.680967880E-1,1.341988564E0,-1.070715070E0,5.196509361E-1,1.793711560E0
9.728691320E-1,1.426713943E0,-1.316100597E0,2.474761009E-1,1.956751870E0
9.776405380E-1,1.581389427E0,-1.324878573E0,-1.349077225E-1,2.067437024E0
9.824112670E-1,1.850402832E0,-1.322284460E0,-4.778108597E-1,2.323947085E0
9.871827260E-1,2.101734161E0,-1.239424229E0,-7.801403999E-1,2.561655314E0
9.919550690E-1,2.311324120E0,-1.060358286E0,-9.600474834E-1,2.718137239E0
9.967264760E-1,2.486448288E0,-9.124002457E-1,-1.070194483E0,2.856609096E0
1.001497205E0,2.629619598E0,-7.863705158E-1,-1.175022602E0,2.985624882E0
1.006268663E0,2.645865440E0,-6.085724235E-1,-1.160580397E0,2.952610909E0
1.011041007E0,2.536030769E0,-4.817069769E-1,-1.078076124E0,2.797452735E0
1.015812413E0,2.396171570E0,-4.505580366E-1,-1.011611104E0,2.639696528E0
1.020583142E0,2.302609444E0,-5.073813200E-1,-1.029935598E0,2.572977534E0
1.025354601E0,2.297964096E0,-4.398388863E-1,-1.051435232E0,2.565075687E0
1.030126944E0,2.250856400E0,-3.080468774E-1,-6.950674057E-1,2.375787471E0
1.034898351E0,2.294647217E0,-9.031387568E-1,-8.622541428E-1,2.612383523E0
1.039669080E0,2.678820610E0,-8.450953960E-1,-1.094359040E0,3.014612379E0
1.044440538E0,2.682245255E0,-1.209110498E0,-8.238826990E-1,3.055351126E0
1.049212830E0,2.652222633E0,-1.630564690E0,-8.176069260E-1,3.218929510E0
1.053984288E0,2.877163887E0,-1.704483986E0,-7.901453972E-1,3.436228665E0
1.058755017E0,3.084443092E0,-1.625903726E0,-5.229151249E-1,3.525732880E0
1.063526476E0,3.138584137E0,-1.612366557E0,-1.226251125E-1,3.530647705E0
1.068298819E0,3.114333153E0,-1.684926867E0,1.666588783E-1,3.544830704E0
1.073070226E0,3.107515335E0,-1.821527004E0,3.690309525E-1,3.620883322E0
1.077840955E0,3.275465965E0,-1.912393332E0,5.893527269E-1,3.838393177E0
1.082612413E0,3.467416763E0,-1.981709003E0,7.863571644E-1,4.070443118E0
1.087384757E0,3.616734505E0,-2.041377783E0,9.736250639E-1,4.265669642E0
1.092156163E0,3.699995995E0,-2.107936859E0,1.176436782E0,4.417846949E0
1.096926892E0,3.812994957E0,-2.138267517E0,1.391440272E0,4.587725422E0
1.101698351E0,3.900932312E0,-2.172852278E0,1.600938320E0,4.743581287E0
1.106470694E0,3.947269440E0,-2.240065098E0,1.725928068E0,4.855682791E0
1.111242101E0,3.923645020E0,-2.296589375E0,1.792554498E0,4.886979090E0
1.116012830E0,3.873281479E0,-2.337583542E0,1.843627930E0,4.885240032E0
1.120784288E0,3.772503853E0,-1.791037321E0,2.259783745E0,4.748286278E0
1.125556632E0,3.559497833E0,-2.296610355E0,2.381958961E0,4.859853130E0
1.130328038E0,3.830335617E0,-2.226975918E0,1.922153950E0,4.829655110E0
1.135098767E0,3.665308952E0,-2.357999325E0,1.945126295E0,4.772647780E0
1.139870226E0,3.645538330E0,-2.202466726E0,2.029855728E0,4.718169526E0
1.144642569E0,3.948936462E0,-2.580746889E0,2.032411575E0,5.136638054E0
1.149413976E0,4.144890785E0,-3.229149103E0,1.979029775E0,5.614631101E0
1.154184705E0,4.398282051E0,-3.314929008E0,2.084272623E0,5.888788644E0
1.158956163E0,4.458612442E0,-3.557769775E0,2.118456841E0,6.084801564E0
1.163728507E0,4.657940865E0,-3.707229853E0,2.036137104E0,6.291726360E0
1.168499913E0,4.880999565E0,-3.793332100E0,2.139695168E0,6.541545734E0
1.173270642E0,4.853454590E0,-3.723498344E0,2.430037498E0,6.582214188E0
1.178042101E0,4.631197929E0,-3.531316280E0,2.665784836E0,6.405044709E0
1.182814392E0,4.284262657E0,-3.252389193E0,2.811826706E0,6.069539637E0
1.187585851E0,3.861029625E0,-3.007961988E0,3.092155218E0,5.789370344E0
1.192356580E0,3.469191551E0,-2.773683071E0,3.276751280E0,5.519574870E0
1.197128038E0,3.165787697E0,-2.547162771E0,3.349267721E0,5.265723520E0
1.201900382E0,2.947931290E0,-2.350103378E0,3.348502636E0,5.042395728E0
1.206671788E0,2.800768852E0,-2.092230082E0,3.382263422E0,4.864302492E0
1.211442517E0,2.671375275E0,-1.783696413E0,3.391077757E0,4.670891468E0
1.216213976E0,2.530958176E0,-1.489312172E0,3.400952339E0,4.493359194E0
1.220986267E0,2.400992393E0,-1.182818651E0,3.451924086E0,4.368020642E0
1.225757726E0,2.240879059E0,-9.238672256E-1,3.450447321E0,4.216711553E0
1.230528455E0,2.062675476E0,-6.525759697E-1,3.401226282E0,4.030983222E0
1.235299913E0,1.835440636E0,-4.381103516E-1,3.271043062E0,3.776308478E0
1.240072257E0,1.621436119E0,-2.156286240E-1,3.134385824E0,3.535523340E0
1.244843663E0,1.384884834E0,-1.652479172E-3,2.958391428E0,3.266494846E0
1.249614392E0,1.159300804E0,2.278640270E-1,2.746143579E0,2.989515835E0
1.254385851E0,9.208431244E-1,4.778072834E-1,2.565025330E0,2.766876723E0
1.259158194E0,7.148408890E-1,7.194828987E-1,2.355918884E0,2.564957490E0
1.263929601E0,5.339174271E-1,9.575610161E-1,2.148228884E0,2.411820527E0
1.268700330E0,3.896923065E-1,1.158343554E0,1.930930376E0,2.285194083E0
1.273471788E0,2.555360794E-1,1.326329470E0,1.690556049E0,2.163891935E0
1.278244080E0,1.645488739E-1,1.451778173E0,1.485374928E0,2.083524627E0
1.283015538E0,1.020050049E-1,1.563180685E0,1.304374456E0,2.038463048E0
1.287786267E0,5.569839478E-2,1.615079880E0,1.195542574E0,2.010200830E0
1.292557726E0,-5.542755127E-3,1.617184877E0,1.123191595E0,1.968978672E0
1.297330017E0,-3.158569336E-2,1.593657255E0,1.075442076E0,1.922840805E0
1.302101476E0,-6.544971466E-2,1.528047562E0,1.097360611E0,1.882395635E0
1.306872153E0,-4.977416992E-2,1.446953535E0,1.135946274E0,1.840251596E0
1.311643715E0,-5.137634277E-2,1.374608278E0,1.224310160E0,1.841500153E0
1.316416007E0,2.070331573E-2,1.292464256E0,1.281136274E0,1.819945778E0
1.321187413E0,9.258651733E-2,1.189325571E0,1.289851427E0,1.756924666E0
1.325958142E0,1.592693329E-1,1.178949594E0,1.484992743E0,1.902759131E0
1.330729601E0,2.587318420E-1,1.205494404E0,1.535372257E0,1.969143695E0
1.335501944E0,3.859758377E-1,1.204147339E0,1.507812262E0,1.967853139E0
1.340273351E0,4.763641357E-1,1.248633146E0,1.452144980E0,1.973507681E0
1.345044080E0,5.323991776E-1,1.336273909E0,1.379735827E0,1.993175305E0
1.349815538E0,5.541772842E-1,1.400071621E0,1.273763776E0,1.972254335E0
1.354587830E0,5.870103836E-1,1.456608295E0,1.086808920E0,1.909827884E0
1.359359288E0,6.115102768E-1,1.505645752E0,8.226485848E-1,1.821445756E0
1.364130017E0,6.180505753E-1,1.501899481E0,5.302700400E-1,1.708471504E0
1.368901476E0,5.970726013E-1,1.495741129E0,2.966327071E-1,1.637598296E0
1.373673819E0,5.868158340E-1,1.506399393E0,4.592037201E-2,1.617312782E0
1.378445226E0,5.634717941E-1,1.472065926E0,-1.117199659E-1,1.580177175E0
1.383215955E0,5.414924622E-1,1.421739578E0,-2.481273413E-1,1.541468356E0
1.387987413E0,5.115051270E-1,1.367691040E0,-3.040462732E-1,1.491529555E0
1.392759757E0,4.927062988E-1,1.300467014E0,-3.231864572E-1,1.427733672E0
1.397531163E0,4.399194717E-1,1.206088066E0,-3.275136352E-1,1.324931223E0
1.402301892E0,4.202346802E-1,1.127836943E0,-3.031572700E-1,1.241175929E0
1.407073351E0,4.027204514E-1,1.051668644E0,-2.671126723E-1,1.157384931E0
1.411845694E0,4.160823822E-1,9.800801277E-1,-2.005277872E-1,1.083463428E0
1.416617101E0,3.745565414E-1,9.181652069E-1,-1.444766521E-1,1.002094533E0
1.421387830E0,3.405141830E-1,8.756258488E-1,-8.499133587E-2,9.433419651E-1
1.426159288E0,2.783327103E-1,8.407649994E-1,-6.526005268E-2,8.880392763E-1
1.430931580E0,2.073631287E-1,8.448033333E-1,-4.012668133E-2,8.708055406E-1
1.435703038E0,1.921682358E-1,8.686444759E-1,-3.616082668E-2,8.903816383E-1
1.440473767E0,1.729307175E-1,9.360747337E-1,1.464843750E-3,9.519154826E-1
1.445245226E0,1.448602676E-1,1.011028290E0,3.255724907E-3,1.021358556E0
1.450017569E0,4.578971863E-2,1.159979343E0,-4.733943939E-2,1.161847580E0
1.454788976E0,-1.437854767E-2,1.299033642E0,-1.665956974E-1,1.309751607E0
1.459559705E0,-1.408872604E-1,1.420868397E0,-3.039673567E-1,1.459832996E0
1.464331163E0,-2.787513733E-1,1.565915585E0,-4.114944935E-1,1.642900382E0
1.469103455E0,-4.184026718E-1,1.726997137E0,-5.437996387E-1,1.858305130E0
1.473874913E0,-5.409030914E-1,1.880025387E0,-7.074754834E-1,2.080286800E0
1.478645642E0,-6.560535431E-1,2.012894154E0,-8.063657880E-1,2.265474544E0
1.483417101E0,-7.449431419E-1,2.135019541E0,-8.762064576E-1,2.425074531E0
1.488189444E0,-8.410534859E-1,2.217855930E0,-9.217932224E-1,2.544790490E0
1.492960851E0,-9.253778458E-1,2.280480146E0,-9.549975991E-1,2.639873912E0
1.497731580E0,-9.907441139E-1,2.327799082E0,-1.009417534E0,2.723810974E0
1.502503038E0,-1.022881508E0,2.364628077E0,-1.056488395E0,2.784586190E0
1.507275382E0,-1.064844608E0,2.374392271E0,-1.098353148E0,2.824537543E0
1.512046788E0,-1.095026016E0,2.426510572E0,-1.151933670E0,2.900687283E0
1.516817517E0,-1.149202347E0,2.437454700E0,-1.188468218E0,2.945217845E0
1.521588976E0,-1.198720932E0,2.452671528E0,-1.229233980E0,2.993918114E0
1.526361319E0,-1.269858360E0,2.474620104E0,-1.271513343E0,3.058272567E0
1.531132726E0,-1.321985245E0,2.491395473E0,-1.346161604E0,3.125195587E0
1.535903455E0,-1.333748341E0,2.488753080E0,-1.445417166E0,3.172066726E0
1.540674913E0,-1.307606697E0,2.481246471E0,-1.530838013E0,3.195290964E0
1.545447257E0,-1.329535484E0,2.464287281E0,-1.545054317E0,3.198057105E0
1.550218663E0,-1.351707935E0,2.478406906E0,-1.528836846E0,3.210445022E0
1.554989392E0,-1.326516151E0,2.506583452E0,-1.477542639E0,3.197770779E0
1.559760851E0,-1.256580353E0,2.555756807E0,-1.412876606E0,3.179167713E0
1.564533194E0,-1.197136402E0,2.618329525E0,-1.361195683E0,3.184593970E0
1.569304601E0,-1.088587761E0,2.672566175E0,-1.332135439E0,3.178398670E0
1.574075330E0,-9.716615677E-1,2.689770937E0,-1.297225952E0,3.140348558E0
1.578846788E0,-8.440537453E-1,2.686670303E0,-1.261237979E0,3.085667721E0
1.583619132E0,-7.320981026E-1,2.684702396E0,-1.229000330E0,3.042044773E0
1.588390538E0,-5.498852730E-1,2.659912348E0,-1.195621252E0,2.967661990E0
1.593161267E0,-4.193515778E-1,2.633896112E0,-1.184824228E0,2.918402462E0
1.597932726E0,-2.496919632E-1,2.577927589E0,-1.120107651E0,2.821825275E0
1.602705069E0,-4.585742950E-2,2.515897036E0,-1.022952676E0,2.716297659E0
1.607476476E0,1.610870361E-1,2.445434809E0,-9.009104967E-1,2.611080267E0
1.612247205E0,3.425302505E-1,2.387950659E0,-7.449226379E-1,2.524786141E0
1.617018663E0,5.106410980E-1,2.300551176E0,-6.223591566E-1,2.437338910E0
1.621791007E0,6.226511002E-1,2.221706390E0,-5.094561577E-1,2.362883673E0
1.626562413E0,7.576751709E-1,2.130067110E0,-4.042137861E-1,2.296659823E0
1.631333142E0,8.728685379E-1,2.037906647E0,-3.401093483E-1,2.242908236E0
1.636104601E0,1.001791000E0,1.909572363E0,-2.811852694E-1,2.174653300E0
1.640876944E0,1.096809387E0,1.776474237E0,-2.035237551E-1,2.097682880E0
1.645648351E0,1.162859917E0,1.660251141E0,-1.548117399E-1,2.032890482E0
1.650419080E0,1.276510239E0,1.518087626E0,-1.205829382E-1,1.987110634E0
1.655190538E0,1.406534195E0,1.381028891E0,-1.102128029E-1,1.974265965E0
1.659962882E0,1.564792633E0,1.239571333E0,-8.271944523E-2,1.997987883E0
1.664734288E0,1.758318901E0,1.081729174E0,-2.373051643E-2,2.064554795E0
1.669505017E0,1.975105286E0,9.243042469E-1,4.517424107E-2,2.181151059E0
1.674276476E0,2.155431747E0,7.410678864E-1,1.501965523E-1,2.284212476E0
1.679048819E0,2.313865662E0,5.895564556E-1,2.694650888E-1,2.402948719E0
1.683820226E0,2.479270935E0,4.388060570E-1,3.834576607E-1,2.546836254E0
1.688590955E0,2.592175484E0,2.867364883E-1,4.822070599E-1,2.652190642E0
1.693362413E0,2.679172516E0,1.193137169E-1,5.583413839E-1,2.739333173E0
1.698134757E0,2.762037277E0,-1.769495010E-2,6.069220304E-1,2.827988222E0
1.702906163E0,2.843231201E0,-1.576781273E-1,6.231796741E-1,2.914992103E0
1.707676892E0,2.877511024E0,-2.383332253E-1,6.286453009E-1,2.955007164E0
1.712448351E0,2.877003670E0,-3.026194572E-1,6.043833494E-1,2.955335494E0
1.717220694E0,2.882446289E0,-2.931122780E-1,6.078816652E-1,2.960393814E0
1.721992101E0,2.872327805E0,-2.291264534E-1,5.960978270E-1,2.942464710E0
1.726762830E0,2.865756989E0,-1.657385826E-1,5.906691551E-1,2.930686344E0
1.731534288E0,2.824517250E0,-3.851079941E-2,5.605205297E-1,2.879854865E0
1.736306632E0,2.781965256E0,1.163225174E-1,5.011793375E-1,2.829141626E0
1.741078038E0,2.761890411E0,2.890429497E-1,4.177379608E-1,2.808218203E0
1.745848767E0,2.811638832E0,4.887354374E-1,3.301075697E-1,2.872828964E0
1.750620330E0,2.909239769E0,7.173109055E-1,2.149655819E-1,3.004067438E0
1.755392569E0,3.087535858E0,8.738627434E-1,9.960103035E-2,3.210363552E0
1.760163976E0,3.307777405E0,9.152081013E-1,-2.481424809E-2,3.432144078E0
1.764934705E0,3.555353165E0,8.915383816E-1,-1.126643419E-1,3.667161036E0
1.769706267E0,3.741938591E0,8.198435307E-1,-1.140958071E-1,3.832396859E0
1.774478507E0,3.846386909E0,7.338726521E-1,-5.124795437E-2,3.916106189E0
1.779249913E0,3.876307487E0,7.222034931E-1,3.923714161E-2,3.943206459E0
1.784020642E0,3.865637779E0,7.348487377E-1,1.732463837E-1,3.938676480E0
1.788792205E0,3.807529449E0,7.815113068E-1,3.668310642E-1,3.904177949E0
1.793564444E0,3.699883461E0,8.646066189E-1,5.213710070E-1,3.835167527E0
1.798335851E0,3.588265419E0,9.554092884E-1,6.700605154E-1,3.773252804E0
1.803106580E0,3.479779243E0,1.072849751E0,8.081220388E-1,3.730004209E0
1.807878142E0,3.390959740E0,1.230808496E0,9.402929544E-1,3.727954982E0
1.812650382E0,3.378757477E0,1.373735428E0,1.064471006E0,3.799506499E0
1.817421788E0,3.425938606E0,1.493908644E0,1.166518331E0,3.915301187E0
1.822192517E0,3.405608177E0,1.538498640E0,1.282397032E0,3.950909676E0
1.826964080E0,3.389534950E0,1.567283154E0,1.404840946E0,3.989849840E0
1.831736319E0,3.356278419E0,1.599372387E0,1.531013012E0,4.020770785E0
1.836507778E0,3.305887222E0,1.684725285E0,1.729670048E0,4.093769423E0
1.841278455E0,3.219357491E0,1.830311775E0,1.883195758E0,4.154603484E0
1.846050017E0,3.108746529E0,1.957006216E0,1.995932102E0,4.180660625E0
1.850822257E0,2.966973305E0,2.074304104E0,2.079582214E0,4.174964706E0
1.855593715E0,2.791751862E0,2.234684467E0,2.100530624E0,4.147278870E0
1.860364392E0,2.616518021E0,2.354306936E0,2.068651199E0,4.082676265E0
1.865135955E0,2.436401367E0,2.488054276E0,2.024935722E0,4.028254011E0
1.869908194E0,2.253647804E0,2.607049704E0,1.888733864E0,3.929752179E0
1.874679653E0,2.094351768E0,2.699234962E0,1.725468397E0,3.827456061E0
1.879450330E0,1.970121384E0,2.718962193E0,1.552669048E0,3.699312753E0
1.884221892E0,1.866392136E0,2.697347641E0,1.328045011E0,3.538757897E0
1.888994132E0,1.749494553E0,2.589008570E0,1.112265944E0,3.316750231E0
1.893765590E0,1.624139786E0,2.451532602E0,8.822280169E-1,3.070206576E0
1.898536267E0,1.533299446E0,2.261234283E0,6.528816223E-1,2.808993074E0
1.903307830E0,1.388580322E0,2.009035110E0,4.845799208E-1,2.489818284E0
1.908080069E0,1.230946541E0,1.764885426E0,3.653799295E-1,2.182556401E0
1.912851528E0,1.098866463E0,1.483905554E0,2.856575251E-1,1.868444117E0
1.917622205E0,9.757499695E-1,1.211935759E0,2.786886692E-1,1.580678228E0
1.922393767E0,8.618383408E-1,9.302241802E-1,3.151611090E-1,1.306678566E0
1.927166007E0,7.788019180E-1,6.033427715E-1,3.804441690E-1,1.056074189E0
1.931937465E0,7.100896835E-1,3.106689453E-1,4.670395851E-1,9.049135463E-1
1.936708142E0,6.676979065E-1,3.550195694E-2,5.794229507E-1,8.847665450E-1
1.941479705E0,6.588630676E-1,-2.125072479E-1,7.242921591E-1,1.001927644E0
1.946251944E0,6.429834366E-1,-4.094395638E-1,9.252092838E-1,1.198782997E0
1.951023403E0,5.891733170E-1,-5.504829884E-1,1.078919649E0,1.346931449E0
1.955794080E0,5.191373825E-1,-6.546888351E-1,1.244961143E0,1.499349639E0
1.960565642E0,4.257955551E-1,-7.077577114E-1,1.329978704E0,1.565588128E0
1.965337882E0,3.259840012E-1,-7.168262005E-1,1.434377909E0,1.636320676E0
1.970109340E0,2.077636719E-1,-6.867942810E-1,1.529428482E0,1.689379652E0
1.974880017E0,7.119274139E-2,-6.249146461E-1,1.600710154E0,1.719842934E0
1.979651580E0,-5.987834930E-2,-5.194945335E-1,1.667394280E0,1.747473512E0
1.984423819E0,-1.974811554E-1,-3.923649788E-1,1.672136188E0,1.728869143E0
1.989195278E0,-3.201627731E-1,-2.223563194E-1,1.700813890E0,1.744911007E0
1.993966007E0,-4.662504196E-1,-7.669353485E-2,1.676888108E0,1.742189737E0
1.998737465E0,-6.214094162E-1,1.137816906E-1,1.648233056E0,1.765153858E0
2.003509757E0,-7.784767151E-1,2.366216183E-1,1.581414700E0,1.778451078E0
2.008281215E0,-9.446525574E-1,3.443813324E-1,1.514679670E0,1.818026804E0
2.013051944E0,-1.095965385E0,4.397001266E-1,1.445676684E0,1.866670138E0
2.017823403E0,-1.265915871E0,4.915313721E-1,1.400818110E0,1.951009343E0
2.022595694E0,-1.421013832E0,5.550353527E-1,1.315745115E0,2.014579302E0
2.027367153E0,-1.597096443E0,6.206488609E-1,1.314627647E0,2.159668472E0
2.032137882E0,-1.700955391E0,6.836402416E-1,1.289826870E0,2.241487581E0
2.036909340E0,-1.833137035E0,7.318880558E-1,1.241445541E0,2.331788702E0
2.041681684E0,-1.919512749E0,7.750480175E-1,1.234043956E0,2.409998570E0
2.046453090E0,-1.996096611E0,8.056958914E-1,1.205463529E0,2.467121778E0
2.051223819E0,-2.043821812E0,8.142790794E-1,1.182142973E0,2.497542798E0
2.055995278E0,-2.067574024E0,8.222193718E-1,1.142688513E0,2.501328463E0
2.060767621E0,-2.055503845E0,8.079729080E-1,1.089767933E0,2.462825699E0
2.065539028E0,-2.038767338E0,7.978193760E-1,1.042721510E0,2.424944569E0
2.070309757E0,-2.017424107E0,7.318360806E-1,1.035079002E0,2.382639842E0
2.075081215E0,-1.924685001E0,7.005650997E-1,1.093089938E0,2.321647998E0
2.079853559E0,-1.779867172E0,6.581672430E-1,1.190155029E0,2.239995595E0
2.084624965E0,-1.642804146E0,6.306911707E-1,1.297282100E0,2.186210800E0
2.089395694E0,-1.506251335E0,6.012221575E-1,1.387661576E0,2.134447427E0
2.094167153E0,-1.415465355E0,5.244705677E-1,1.448788524E0,2.092271429E0
2.098939496E0,-1.382194519E0,4.173146486E-1,1.473140836E0,2.062706263E0
2.103710903E0,-1.384677887E0,2.848768234E-1,1.441263199E0,2.018843051E0
2.108481632E0,-1.410776138E0,1.514196396E-1,1.400820017E0,1.993869088E0
2.113253090E0,-1.472369194E0,3.386116028E-2,1.316343427E0,1.975291786E0
2.118025434E0,-1.526363373E0,-9.390366077E-2,1.262350321E0,1.982960256E0
2.122796840E0,-1.587092400E0,-2.101737261E-1,1.186466694E0,1.992671196E0
2.127567569E0,-1.606753349E0,-3.244507313E-1,1.153331995E0,2.004270265E0
2.132339028E0,-1.654673576E0,-4.843413830E-1,1.107877493E0,2.049371552E0
2.137111371E0,-1.704463959E0,-6.299439669E-1,1.166861057E0,2.159535023E0
2.141882778E0,-1.741736412E0,-7.921500206E-1,1.150696039E0,2.232767063E0
2.146653507E0,-1.761717796E0,-9.803541899E-1,1.140648723E0,2.316424711E0
2.151424965E0,-1.771588326E0,-1.177629352E0,1.160500288E0,2.423241012E0
2.156197309E0,-1.761823654E0,-1.357672691E0,1.210169315E0,2.532154714E0
2.160968715E0,-1.730078697E0,-1.525294304E0,1.267963648E0,2.632000537E0
2.165739444E0,-1.702616692E0,-1.730478406E0,1.350110769E0,2.777815365E0
2.170510903E0,-1.703304291E0,-1.918121934E0,1.399043322E0,2.921944468E0
2.175283246E0,-1.717727661E0,-2.121555805E0,1.464804649E0,3.097941254E0
2.180054653E0,-1.700434685E0,-2.309531689E0,1.499243140E0,3.236223838E0
2.184825382E0,-1.718379974E0,-2.522484303E0,1.533520937E0,3.415763935E0
2.189596944E0,-1.704632759E0,-2.679132938E0,1.534388065E0,3.526736860E0
2.194369184E0,-1.671242714E0,-2.877455711E0,1.538064837E0,3.665848745E0
2.199140590E0,-1.625474930E0,-3.062423706E0,1.509156942E0,3.781291100E0
2.203911319E0,-1.560235977E0,-3.231648445E0,1.517400503E0,3.896202287E0
2.208682882E0,-1.451724052E0,-3.432936668E0,1.546316862E0,4.035300823E0
2.213455121E0,-1.352624893E0,-3.611256838E0,1.548353434E0,4.155498575E0
2.218226528E0,-1.274874687E0,-3.771273851E0,1.547577620E0,4.271160079E0
2.222997257E0,-1.194564819E0,-3.936654568E0,1.501353860E0,4.379303336E0
2.227768819E0,-1.099794388E0,-4.081048489E0,1.481683731E0,4.478826983E0
2.232541059E0,-9.834709167E-1,-4.230563641E0,1.419668078E0,4.569501200E0
2.237312517E0,-8.504810333E-1,-4.368351936E0,1.368458033E0,4.656016969E0
2.242083194E0,-6.961479187E-1,-4.508790493E0,1.314142585E0,4.747713594E0
2.246854757E0,-5.349111557E-1,-4.659058571E0,1.285798073E0,4.862739289E0
2.251626996E0,-3.954877853E-1,-4.776140213E0,1.254869461E0,4.954051199E0
2.256398455E0,-2.635240555E-1,-4.886488438E0,1.247698545E0,5.050145131E0
2.261169132E0,-1.079788208E-1,-4.980626583E0,1.221404314E0,5.129340024E0
2.265940694E0,5.675411224E-2,-5.089758396E0,1.242817283E0,5.239604599E0
2.270712934E0,2.139492035E-1,-5.194792271E0,1.280549526E0,5.354572633E0
2.275484392E0,3.660316467E-1,-5.269625187E0,1.374769211E0,5.458289032E0
2.280255069E0,4.748735428E-1,-5.274072647E0,1.576741457E0,5.525166132E0
2.285026632E0,6.504783630E-1,-5.328045368E0,1.670817375E0,5.621638573E0
2.289798871E0,7.732458115E-1,-5.478893757E0,1.745810628E0,5.802072098E0
2.294570330E0,8.433160782E-1,-5.575581551E0,1.818258405E0,5.924892848E0
2.299341007E0,9.277133942E-1,-5.615751266E0,1.902220488E0,6.001312957E0
2.304112569E0,1.083745003E0,-5.661797047E0,1.954508543E0,6.086916516E0
2.308884809E0,1.261096954E0,-5.790253639E0,1.967795849E0,6.244167137E0
2.313656267E0,1.409585953E0,-5.919802666E0,1.972702146E0,6.397073543E0
2.318426944E0,1.452910423E0,-6.086033344E0,2.078092813E0,6.593119164E0
2.323198507E0,1.400942802E0,-6.221671581E0,2.170247555E0,6.736602441E0
2.327970746E0,1.203826904E0,-6.252101421E0,2.324361801E0,6.777951695E0
2.332742205E0,9.288663864E-1,-6.203351498E0,2.436419010E0,6.729078701E0
2.337512934E0,5.500307083E-1,-6.084912777E0,2.527089119E0,6.611722673E0
2.342284392E0,1.368865967E-1,-5.942195892E0,2.610360146E0,6.491718575E0
2.347056736E0,-3.056907654E-1,-5.835143089E0,2.612322807E0,6.400513430E0
2.351828142E0,-6.868667603E-1,-5.744792461E0,2.562556028E0,6.327805289E0
2.356598871E0,-1.076097488E0,-5.656856537E0,2.524416924E0,6.287343834E0
2.361370330E0,-1.492475510E0,-5.563961983E0,2.520096779E0,6.287769387E0
2.366142673E0,-1.919171333E0,-5.458551407E0,2.537885666E0,6.318216973E0
2.370914080E0,-2.341796398E0,-5.364164829E0,2.499395370E0,6.364373646E0
2.375684809E0,-2.659965038E0,-5.285155773E0,2.438608170E0,6.399616813E0
2.380456267E0,-2.873854637E0,-5.276106358E0,2.379925489E0,6.462227488E0
2.385228611E0,-3.031425953E0,-5.327082634E0,2.247353077E0,6.528242378E0
2.390000017E0,-3.092176437E0,-5.394883156E0,2.087086201E0,6.559134714E0
2.394770746E0,-3.063563347E0,-5.462755203E0,1.833471060E0,6.526004208E0
2.399542205E0,-3.010379791E0,-5.487822056E0,1.595252872E0,6.459366000E0
2.404314548E0,-2.932755470E0,-5.412859440E0,1.323029160E0,6.296864944E0
2.409085955E0,-2.859518528E0,-5.276582241E0,1.082130432E0,6.098374589E0
2.413856684E0,-2.824240685E0,-5.120060444E0,7.776829004E-1,5.898825738E0
2.418628142E0,-2.774455547E0,-4.895749092E0,4.943971634E-1,5.648928333E0
2.423400486E0,-2.729532242E0,-4.627671719E0,1.880939007E-1,5.375971643E0
2.428171892E0,-2.660940170E0,-4.350147247E0,-1.661014557E-2,5.099476401E0
2.432942621E0,-2.626198769E0,-4.030658722E0,-1.532844305E-1,4.813172116E0
2.437714080E0,-2.580022335E0,-3.725292683E0,-2.625322342E-1,4.539079642E0
2.442486423E0,-2.517812252E0,-3.398786545E0,-4.373584986E-1,4.252341822E0
2.447257830E0,-2.468413353E0,-3.085539341E0,-5.463306904E-1,3.988996707E0
2.452028559E0,-2.336345673E0,-2.810018301E0,-6.708601713E-1,3.715476729E0
2.456800121E0,-2.174435616E0,-2.543835640E0,-7.751065493E-1,3.435121566E0
2.461572361E0,-1.973224163E0,-2.327908993E0,-8.593686819E-1,3.170376698E0
2.466343767E0,-1.773361206E0,-2.209838867E0,-9.837775230E-1,2.999335927E0
2.471114496E0,-1.548519135E0,-2.175013781E0,-1.081620216E0,2.880711500E0
2.475886059E0,-1.348847389E0,-2.184702396E0,-1.167454839E0,2.820507869E0
2.480658298E0,-1.159858704E0,-2.181199551E0,-1.258326530E0,2.772415797E0
2.485429705E0,-9.933795929E-1,-2.154852867E0,-1.304404020E0,2.707704515E0
2.490200434E0,-8.468217850E-1,-2.119846106E0,-1.248968601E0,2.602071716E0
2.494971996E0,-7.582292557E-1,-2.078493118E0,-1.178863645E0,2.506943306E0
2.499744236E0,-6.627836227E-1,-2.013991833E0,-1.071105599E0,2.375439420E0
2.504515694E0,-5.603351593E-1,-1.950224042E0,-9.146034718E-1,2.225724335E0
2.509286371E0,-4.148712158E-1,-1.877445936E0,-7.795600891E-1,2.074761505E0
2.514057934E0,-2.430944443E-1,-1.809969187E0,-6.760954857E-1,1.947354223E0
2.518830173E0,-5.927181244E-2,-1.755113840E0,-5.764329433E-1,1.848299943E0
2.523601632E0,1.294698715E-1,-1.674684286E0,-4.716153145E-1,1.744634893E0
2.528372309E0,3.279705048E-1,-1.604606152E0,-3.957264423E-1,1.684910968E0
2.533143871E0,4.765291214E-1,-1.525825262E0,-3.230848312E-1,1.630830016E0
2.537916111E0,6.421775818E-1,-1.469292641E0,-2.730004787E-1,1.626573752E0
2.542687569E0,7.723321915E-1,-1.401505947E0,-2.361788750E-1,1.617558776E0
2.547458246E0,8.647727966E-1,-1.331788540E0,-1.580494642E-1,1.595767006E0
2.552229809E0,8.861837387E-1,-1.255205154E0,-8.916532993E-2,1.539094557E0
2.557002048E0,8.034620285E-1,-6.961603165E-1,2.367372513E-1,1.089144134E0
2.561773507E0,7.817802429E-1,-1.105601788E0,3.747982979E-1,1.404994457E0
2.566544184E0,9.784545898E-1,-1.091217041E0,-1.391175985E-1,1.472236979E0
2.571315746E0,8.077812195E-1,-1.145820856E0,-8.560800552E-2,1.404544290E0
2.576087986E0,6.505126953E-1,-1.373990536E0,-7.250702381E-2,1.521931019E0
2.580859444E0,6.044311523E-1,-1.244930506E0,-2.753258944E-1,1.411025631E0
2.585630173E0,4.518833160E-1,-1.026887894E0,-1.940104961E-1,1.138568114E0
2.590401632E0,1.645812988E-1,-7.507395744E-1,3.677415848E-2,7.694473674E-1
2.595173923E0,-1.280832291E-1,-5.407404900E-1,1.059973240E-1,5.657216840E-1
2.599945382E0,-3.520069122E-1,-3.515405655E-1,1.668109894E-1,5.247051950E-1
2.604716111E0,-4.285058975E-1,-1.787757874E-1,2.477228642E-1,5.262553599E-1
2.609487569E0,-4.868755341E-1,-4.412388802E-2,2.529772520E-1,5.504472665E-1
2.614259913E0,-5.439682007E-1,7.130050659E-2,1.925740242E-1,5.814378044E-1
2.619031319E0,-6.094083786E-1,2.199718952E-1,1.220128536E-1,6.592824456E-1
2.623802048E0,-6.259393692E-1,3.777248859E-1,6.329810619E-2,7.338138958E-1
2.628573507E0,-6.200017929E-1,5.085306168E-1,1.188480854E-2,8.019643758E-1
2.633345851E0,-6.108608246E-1,6.864221096E-1,-5.321633816E-2,9.204119937E-1
2.638117257E0,-6.343593597E-1,8.539645672E-1,-1.031930447E-1,1.068791880E0
2.642887986E0,-6.259136200E-1,1.008851767E0,-1.521998644E-1,1.196960545E0
2.647659444E0,-6.787605286E-1,1.170188904E0,-1.883112192E-1,1.365840050E0
2.652431788E0,-8.976030350E-1,1.569912434E0,-1.665139198E-2,1.808478235E0
2.657203194E0,-8.592729568E-1,1.547618151E0,1.259193420E-1,1.774634508E0
2.661973923E0,-4.476642609E-1,1.488276243E0,-6.074353456E-1,1.668636319E0
2.666745382E0,-6.955795288E-1,1.874790907E0,-5.598244667E-1,2.076553698E0
2.671517726E0,-4.765634537E-1,1.669021487E0,-7.807261944E-1,1.903228531E0
2.676289132E0,-3.152742386E-1,1.706102252E0,-1.411360502E0,2.236542244E0
2.681059861E0,-6.247863770E-1,2.095882416E0,-1.380901814E0,2.586497813E0
2.685831319E0,-5.346145630E-1,2.013416290E0,-1.497304797E0,2.565458934E0
2.690603663E0,-3.493995667E-1,2.073661327E0,-2.081751347E0,2.959026872E0
2.695375069E0,-3.991041183E-1,2.340885162E0,-2.263768196E0,3.280803848E0
2.700145798E0,-6.162242889E-1,2.566221237E0,-2.023233891E0,3.325462252E0
2.704917361E0,-2.673892975E-1,2.512856483E0,-2.530568361E0,3.576271938E0
2.709689601E0,-1.949758530E-1,2.652025461E0,-2.861844063E0,3.906584963E0
2.714461059E0,-3.482589722E-1,2.861557007E0,-2.663975477E0,3.925118872E0
2.719231736E0,-5.661010742E-3,2.718063116E0,-2.981161356E0,4.034256088E0
2.724003298E0,1.720008850E-1,2.774029732E0,-3.216951132E0,4.251305663E0
2.728775538E0,1.134510040E-1,2.983765602E0,-2.970508575E0,4.211846329E0
2.733546996E0,4.497451782E-1,2.828418016E0,-3.064175844E0,4.194209437E0
2.738317673E0,6.734161377E-1,2.808140039E0,-3.191292763E0,4.303892340E0
2.743089236E0,7.679729462E-1,2.848772764E0,-3.132003546E0,4.302875192E0
2.747861476E0,8.772153854E-1,2.926377773E0,-3.001899004E0,4.283058642E0
2.752632934E0,9.797458649E-1,2.988255262E0,-2.911601543E0,4.285673228E0
2.757403611E0,1.125939369E0,2.989080191E0,-2.773109436E0,4.229949857E0
2.762175173E0,1.270564079E0,2.981648684E0,-2.649236441E0,4.186050128E0
2.766947413E0,1.432860374E0,2.949235678E0,-2.504494190E0,4.125963049E0
2.771718871E0,1.593861580E0,2.891921759E0,-2.375248432E0,4.067605107E0
2.776489548E0,1.758508682E0,2.826533556E0,-2.214052200E0,3.997958463E0
2.781261111E0,1.864912987E0,2.750973701E0,-2.097791672E0,3.930201859E0
2.786033351E0,1.963569641E0,2.651239872E0,-1.973960519E0,3.844632456E0
2.790804809E0,2.078646660E0,2.575385332E0,-1.835816026E0,3.784653488E0
2.795575538E0,2.164870262E0,2.506827116E0,-1.738544822E0,3.740773120E0
2.800346996E0,2.315667152E0,2.450499535E0,-1.656023979E0,3.756285100E0
2.805119288E0,2.442511559E0,2.377676725E0,-1.547662973E0,3.743590523E0
2.809890746E0,2.414335251E0,2.618195772E0,-1.299703360E0,3.791199365E0
2.814661476E0,2.487108231E0,2.349426746E0,-1.132101536E0,3.603771257E0
2.819432934E0,2.791628838E0,2.026506186E0,-1.609639168E0,3.806685847E0
2.824205278E0,2.842299461E0,1.878963709E0,-1.660410404E0,3.790268270E0
2.828976684E0,2.821457863E0,1.803875208E0,-1.440995216E0,3.645690257E0
2.833747413E0,2.791326523E0,1.732105494E0,-1.446078897E0,3.589266969E0
2.838518871E0,2.730228424E0,1.733301878E0,-1.540488958E0,3.582120724E0
2.843291215E0,2.695555687E0,1.721516848E0,-1.554023266E0,3.555928715E0
2.848062621E0,2.725361824E0,1.675169706E0,-1.524777174E0,3.543830702E0
2.852833351E0,2.776359558E0,1.598973274E0,-1.478838205E0,3.528717949E0
2.857604809E0,2.798122406E0,1.547751188E0,-1.375307918E0,3.480875552E0
2.862377153E0,2.819167137E0,1.533181429E0,-1.216385484E0,3.431900681E0
2.867148559E0,2.858532906E0,1.538290977E0,-1.061908245E0,3.415435349E0
2.871919288E0,2.927994728E0,1.560361862E0,-8.305764198E-1,3.420195822E0
2.876690851E0,2.986896515E0,1.596805573E0,-6.303386688E-1,3.445092983E0
2.881463090E0,3.020950317E0,1.652127504E0,-3.993968964E-1,3.466292543E0
2.886234496E0,3.068534851E0,1.726181984E0,-1.453776360E-1,3.523740205E0
2.891005226E0,3.098684311E0,1.816335678E0,9.998750687E-2,3.593176485E0
2.895776788E0,3.106751442E0,1.951117754E0,3.386368752E-1,3.684214970E0
2.900549028E0,3.121533394E0,2.108747244E0,5.485696793E-1,3.806798440E0
2.905320434E0,3.100027084E0,2.308083296E0,7.174289227E-1,3.930918555E0
2.910091163E0,3.058988571E0,2.532030582E0,9.046661854E-1,4.072715416E0
2.914862726E0,3.053276062E0,2.768244267E0,1.071846247E0,4.258465147E0
2.919634965E0,3.022878647E0,3.009190321E0,1.161625624E0,4.420678205E0
2.924406423E0,3.053625107E0,3.211437702E0,1.224409580E0,4.597514244E0
2.929177101E0,3.161678314E0,3.298088551E0,1.153263807E0,4.712071228E0
2.933948663E0,3.353646278E0,3.218838215E0,1.030468225E0,4.761273735E0
2.938720903E0,3.557571411E0,2.974187851E0,9.142172337E-1,4.726298855E0
2.943492361E0,3.692226410E0,2.636631250E0,7.789363861E-1,4.603379422E0
2.948263038E0,3.798711777E0,2.295536518E0,7.014322281E-1,4.493518247E0
2.953034601E0,3.815399170E0,2.018661499E0,7.031459808E-1,4.373405920E0
2.957806840E0,3.793238640E0,1.768389463E0,7.666413784E-1,4.254832509E0
2.962578298E0,3.744714737E0,1.581119537E0,8.842256069E-1,4.159889707E0
2.967348976E0,3.725178719E0,1.406940222E0,1.005263090E0,4.106944260E0
2.972120538E0,3.715635300E0,1.312888384E0,1.165304661E0,4.109447231E0
2.976892778E0,3.728097916E0,1.303553343E0,1.371109486E0,4.180658633E0
2.981664236E0,3.798201561E0,1.380514383E0,1.590976477E0,4.343197118E0
2.986434965E0,3.894591331E0,1.526006460E0,1.816718102E0,4.560373013E0
2.991206423E0,4.036137581E0,1.605924606E0,1.867106199E0,4.728158835E0
2.995978715E0,4.143857956E0,1.708849192E0,1.926633358E0,4.878897459E0
3.000750173E0,4.236889839E0,1.865832090E0,1.942854643E0,5.020682131E0
3.005520851E0,4.374914169E0,1.985819817E0,1.956576347E0,5.187633886E0
3.010292413E0,4.473989487E0,2.149648190E0,1.989150524E0,5.347362815E0
3.015064705E0,4.574606895E0,2.356792688E0,2.035673380E0,5.534028021E0
3.019836111E0,4.652652740E0,2.563612461E0,2.052824497E0,5.695030710E0
3.024606840E0,4.672176361E0,2.757884502E0,2.059777260E0,5.803261259E0
3.029378298E0,4.640252113E0,2.970250845E0,2.082733393E0,5.890000691E0
3.034150642E0,4.599773407E0,3.164422750E0,2.021372080E0,5.937796883E0
3.038922048E0,4.531435013E0,3.277896881E0,1.962015152E0,5.926889125E0
3.043692778E0,4.446994781E0,3.343886375E0,1.864385605E0,5.867987079E0
3.048464236E0,4.315395355E0,3.324233770E0,1.724074841E0,5.713632933E0
3.053236580E0,4.172503471E0,3.231019497E0,1.544062138E0,5.498490710E0
3.058007986E0,4.032745361E0,3.074177504E0,1.358470917E0,5.249671009E0
3.062778715E0,3.889158249E0,2.875769615E0,1.239404917E0,4.993168064E0
3.067550173E0,3.777744293E0,2.638535500E0,1.117783666E0,4.741588537E0
3.072322517E0,3.662963867E0,2.377405167E0,1.060389519E0,4.493749609E0
3.077093923E0,3.573864937E0,2.121586800E0,1.050074935E0,4.286758508E0
3.081864653E0,3.484569550E0,1.754722595E0,1.012450337E0,4.030673891E0
3.086636215E0,3.402637482E0,1.394633293E0,1.083182573E0,3.833566008E0
3.091408455E0,3.299861908E0,1.013518095E0,1.113465428E0,3.627135619E0
3.096179861E0,3.217305183E0,6.601078510E-1,1.239462256E0,3.510421870E0
3.100950590E0,3.114653587E0,3.350541592E-1,1.374445200E0,3.420881154E0
3.105722153E0,2.987340927E0,8.168959618E-2,1.501166701E0,3.344305678E0
3.110494392E0,2.835595131E0,-9.973645210E-2,1.633373976E0,3.273905565E0
3.115265851E0,2.654826164E0,-1.804332733E-1,1.758277655E0,3.189388411E0
3.120036528E0,2.437906265E0,-1.821765900E-1,1.891890883E0,3.091249971E0
3.124808090E0,2.213390350E0,-5.778241158E-2,1.993018150E0,2.979019469E0
3.129580330E0,2.002521515E0,1.511504650E-1,2.042073250E0,2.864088343E0
3.134351788E0,1.783355713E0,4.507064819E-1,2.058259010E0,2.760420998E0
3.139122465E0,1.543523788E0,7.514617443E-1,2.032604218E0,2.660571432E0
3.143894028E0,1.294625282E0,1.021560431E0,1.992054224E0,2.586101384E0
3.148666267E0,1.043482780E0,1.270038366E0,1.877993226E0,2.495738833E0
3.153437726E0,7.946491241E-1,1.448829412E0,1.768021464E0,2.420015247E0
3.158208455E0,5.407705307E-1,1.588692307E0,1.653053880E0,2.355623727E0
3.162979913E0,2.793512344E-1,1.713327050E0,1.574187040E0,2.343414503E0
3.167752205E0,3.908061981E-2,1.736581445E0,1.502848506E0,2.296910107E0
3.172523663E0,-1.991558075E-1,1.734978914E0,1.419721961E0,2.250649976E0
3.177294340E0,-4.567346573E-1,1.687168598E0,1.358034611E0,2.213459381E0
3.182065903E0,-7.215642929E-1,1.595722318E0,1.293716192E0,2.177311721E0
3.186838194E0,-9.694967270E-1,1.482675195E0,1.269560575E0,2.179457201E0
3.191609601E0,-1.238609314E0,1.329343319E0,1.223181009E0,2.190314697E0
3.196380330E0,-1.464158058E0,1.172094941E0,1.142669797E0,2.196192076E0
3.201151788E0,-1.677124977E0,9.564125538E-1,1.040030956E0,2.192974590E0
3.205924132E0,-1.834383965E0,7.569475174E-1,9.609414339E-1,2.204845236E0
3.210695538E0,-1.971779823E0,5.524313450E-1,8.956947327E-1,2.235031346E0
3.215466267E0,-2.067765713E0,3.406283855E-1,8.321906328E-1,2.254822385E0
3.220237726E0,-2.165358543E0,1.051182747E-1,7.608555555E-1,2.297548400E0
3.225010069E0,-2.295578003E0,-1.083765030E-1,7.032631636E-1,2.403331627E0
3.229781476E0,-2.379497051E0,-3.117055893E-1,6.452825069E-1,2.485066620E0
3.234552205E0,-2.457811356E0,-4.998619556E-1,6.038784981E-1,2.579799968E0
3.239323663E0,-2.516211987E0,-6.653971672E-1,5.198740959E-1,2.654118540E0
3.244096007E0,-2.549987793E0,-8.559067249E-1,4.584524632E-1,2.728588046E0
3.248867413E0,-2.585504532E0,-1.054499149E0,4.102879763E-1,2.822257671E0
3.253638142E0,-2.596517563E0,-1.210985303E0,3.516775370E-1,2.886531820E0
3.258409601E0,-2.590318680E0,-1.392633557E0,3.448494673E-1,2.961097810E0
3.263181944E0,-2.574210167E0,-1.533078432E0,3.512995243E-1,3.016670154E0
3.267953351E0,-2.552990913E0,-1.651632071E0,3.827716112E-1,3.064663963E0
3.272724080E0,-2.543424129E0,-1.727017760E0,4.199961424E-1,3.102900805E0
3.277495642E0,-2.550261021E0,-1.840536952E0,4.318374395E-1,3.174569438E0
3.282267882E0,-2.554327965E0,-1.968220353E0,4.827064276E-1,3.260596296E0
3.287039340E0,-2.524527550E0,-2.102754116E0,5.270946026E-1,3.327558105E0
3.291810017E0,-2.506325722E0,-2.263202906E0,5.554356575E-1,3.422318627E0
3.296581580E0,-2.485361099E0,-2.413597345E0,6.013320684E-1,3.516258266E0
3.301353819E0,-2.485531807E0,-2.546574831E0,5.907398462E-1,3.607199093E0
3.306125278E0,-2.506773949E0,-2.662042141E0,6.024174094E-1,3.705845480E0
3.310895955E0,-2.522742271E0,-2.752650499E0,6.123958826E-1,3.783694234E0
3.315667517E0,-2.566878319E0,-2.854120016E0,6.395358443E-1,3.891512748E0
3.320439757E0,-2.608066559E0,-2.937672138E0,6.909308434E-1,3.988648167E0
3.325211215E0,-2.660647392E0,-2.991192818E0,7.162569165E-1,4.066854188E0
3.329981892E0,-2.719834328E0,-3.079147816E0,7.538579702E-1,4.176954857E0
3.334753455E0,-2.768932343E0,-3.148840666E0,7.562651634E-1,4.260765290E0
3.339525694E0,-2.877302170E0,-3.221647501E0,8.216952682E-1,4.396937970E0
3.344297153E0,-2.980317116E0,-3.271079063E0,8.496828675E-1,4.506019233E0
3.349067882E0,-3.104300499E0,-3.289870977E0,9.264013767E-1,4.617158449E0
3.353839340E0,-3.172730923E0,-3.311666012E0,1.020469666E0,4.698373295E0
3.358611684E0,-3.226338387E0,-3.293520212E0,1.138757229E0,4.749031775E0
3.363383090E0,-3.234049320E0,-3.302578688E0,1.208854437E0,4.777805986E0
3.368153819E0,-3.227006912E0,-3.310235500E0,1.273441076E0,4.795089661E0
3.372925278E0,-3.198069096E0,-3.347573519E0,1.310725927E0,4.811641805E0
3.377697621E0,-3.154448509E0,-3.409911156E0,1.325199962E0,4.830548046E0
3.382469028E0,-3.077049255E0,-3.509051323E0,1.343029737E0,4.856480432E0
3.387239757E0,-3.025701046E0,-3.644870996E0,1.347299933E0,4.924953656E0
3.392011215E0,-2.931044579E0,-3.786060810E0,1.368936300E0,4.979886080E0
3.396783559E0,-2.800346375E0,-3.889885426E0,1.371910930E0,4.985507802E0
3.401554965E0,-2.215320587E0,-3.333326101E0,1.537598610E0,4.287530488E0
3.406325694E0,-2.359971046E0,-3.832898617E0,1.750623226E0,4.829622845E0
3.411097257E0,-2.358319283E0,-4.164590359E0,1.454921722E0,5.002227495E0
3.415869496E0,-2.322930813E0,-4.438139915E0,1.298732996E0,5.174920373E0
3.420640955E0,-2.347032070E0,-4.825177193E0,1.509891629E0,5.574106853E0
3.425411632E0,-2.122174263E0,-5.079476357E0,1.528498888E0,5.713231354E0
3.430183194E0,-1.574668884E0,-4.975096703E0,1.343571424E0,5.388539085E0
3.434955434E0,-1.204652786E0,-4.888292313E0,1.380995035E0,5.220511216E0
3.439726892E0,-1.145740509E0,-4.887918949E0,1.456121922E0,5.227309443E0
3.444497569E0,-1.184741974E0,-4.956725597E0,1.449762583E0,5.298542605E0
3.449269132E0,-1.092018127E0,-5.063547611E0,1.486580253E0,5.389057325E0
3.454041371E0,-8.390750885E-1,-5.161092758E0,1.485232830E0,5.435700693E0
3.458812830E0,-6.054468155E-1,-5.259319305E0,1.400419593E0,5.476146495E0
3.463583507E0,-4.819507599E-1,-5.348632336E0,1.327957630E0,5.532053494E0
3.468355069E0,-4.301967621E-1,-5.476762295E0,1.256293297E0,5.635447394E0
3.473127309E0,-4.094400406E-1,-5.605143070E0,1.223865867E0,5.751792559E0
3.477898767E0,-3.670244217E-1,-5.714449883E0,1.221019745E0,5.854958036E0
3.482669496E0,-3.794736862E-1,-5.845153332E0,1.233446360E0,5.985917446E0
3.487440955E0,-3.941087723E-1,-5.941929817E0,1.263702631E0,6.087593615E0
3.492213298E0,-3.439931870E-1,-6.038290501E0,1.242799282E0,6.174450060E0
3.496984705E0,-1.742563248E-1,-6.136798382E0,1.166580439E0,6.249125504E0
3.501755434E0,1.005706787E-1,-6.287824154E0,1.092931151E0,6.382894763E0
3.506526892E0,3.249320984E-1,-6.498414040E0,1.026876330E0,6.587066183E0
3.511299236E0,5.252056122E-1,-6.718098640E0,1.004410982E0,6.813041296E0
3.516070642E0,6.512517929E-1,-6.843535423E0,9.990819693E-1,6.946673360E0
3.520841371E0,7.366943359E-1,-6.910433769E0,1.046523333E0,7.027945967E0
3.525612830E0,7.147617340E-1,-6.858378887E0,1.145978928E0,6.990101072E0
3.530385173E0,6.263704300E-1,-6.782797337E0,1.263166904E0,6.927789709E0
3.535156580E0,4.789218903E-1,-6.633270264E0,1.378209233E0,6.791840786E0
3.539927309E0,3.395500183E-1,-6.436244011E0,1.469190717E0,6.610525890E0
3.544698871E0,2.322425842E-1,-6.175297260E0,1.457072735E0,6.349117563E0
3.549471111E0,1.450395584E-1,-5.877247810E0,1.385269165E0,6.040037165E0
3.554242517E0,6.835937500E-2,-5.595156193E0,1.273486733E0,5.738659625E0
3.559013246E0,-2.126693726E-4,-5.324104309E0,1.125057220E0,5.441676257E0
3.563784809E0,-4.879188538E-2,-5.109464645E0,9.125281572E-1,5.190541133E0
3.568557048E0,-5.755424500E-3,-4.930238247E0,7.252203226E-1,4.983294775E0
3.573328507E0,5.214786530E-2,-4.743922234E0,5.353412628E-1,4.774317525E0
3.578099184E0,1.176452637E-1,-4.574775696E0,3.291658163E-1,4.588111072E0
3.582870746E0,1.763381958E-1,-4.386974335E0,1.884555817E-1,4.394559646E0
3.587642986E0,1.804819107E-1,-4.161358833E0,1.104760170E-1,4.166735654E0
3.592414444E0,1.493263245E-1,-3.943361759E0,8.305656910E-2,3.947062035E0
3.597185121E0,1.522798538E-1,-3.723545551E0,2.238929272E-2,3.726725360E0
3.601956684E0,1.414909363E-1,-3.494859457E0,6.004869938E-2,3.498237864E0
3.606728923E0,1.600065231E-1,-3.248136759E0,1.025615931E-1,3.253692268E0
3.611500382E0,1.240825653E-1,-2.962230444E0,1.689960957E-1,2.969640612E0
3.616271111E0,9.114933014E-2,-2.675664425E0,2.163730860E-1,2.685945946E0
3.621042569E0,2.290630341E-2,-2.343390465E0,2.781261206E-1,2.359948666E0
3.625814913E0,-1.135826111E-2,-2.044725418E0,2.612473965E-1,2.061378482E0
3.630586319E0,-7.154273987E-2,-1.703601003E0,3.450652361E-1,1.739668002E0
3.635357048E0,-8.118438721E-2,-1.380402088E0,3.641858101E-1,1.429941304E0
3.640128507E0,-7.631015778E-2,-1.120825768E0,3.379007578E-1,1.173137061E0
3.644900851E0,-2.827930450E-2,-9.059445858E-1,3.303974867E-1,9.647268063E-1
3.649672257E0,5.087661743E-2,-7.240147591E-1,3.053022623E-1,7.873977857E-1
3.654442986E0,1.515226364E-1,-5.537986755E-1,2.715793848E-1,6.351436409E-1
3.659214444E0,2.593059540E-1,-4.669833183E-1,2.121005058E-1,5.747169929E-1
3.663986788E0,3.742179871E-1,-3.653495312E-1,1.506494284E-1,5.442560354E-1
3.668758194E0,5.010719299E-1,-2.870912552E-1,8.681190014E-2,5.839784018E-1
3.673528923E0,6.207332611E-1,-2.058284283E-1,4.902768135E-2,6.558039622E-1
3.678300486E0,7.308616638E-1,-1.261792183E-1,-3.465819359E-2,7.424831023E-1
3.683072726E0,8.266773224E-1,-4.812073708E-2,-1.069508791E-1,8.349547839E-1
3.687844184E0,8.914527893E-1,5.461144447E-2,-1.848165989E-1,9.120458654E-1
3.692614861E0,9.562911987E-1,1.795663834E-1,-2.731875181E-1,1.010627707E0
3.697386423E0,1.016321182E0,3.265571594E-1,-3.791636229E-1,1.132834223E0
3.702158663E0,1.073824883E0,4.738051891E-1,-5.026869774E-1,1.276826313E0
3.706930121E0,1.140646935E0,6.378521919E-1,-5.934355259E-1,1.435303651E0
3.711700798E0,1.178373337E0,7.754230499E-1,-7.014113665E-1,1.575380123E0
3.716472361E0,1.208435059E0,8.839664459E-1,-7.954092026E-1,1.695401949E0
3.721244601E0,1.247484207E0,9.538285732E-1,-8.634346724E-1,1.792072886E0
3.726016059E0,1.261962891E0,1.001758575E0,-9.245457649E-1,1.857647828E0
3.730786736E0,1.278198242E0,1.011137724E0,-9.525045753E-1,1.887711633E0
3.735558298E0,1.274637222E0,1.025069952E0,-9.927988052E-1,1.913404798E0
3.740330538E0,1.260877609E0,1.031687737E0,-9.761255980E-1,1.899213815E0
3.745101996E0,1.222574234E0,1.038178444E0,-9.433705807E-1,1.860766050E0
3.749872726E0,1.116761208E0,1.078133821E0,-8.660484552E-1,1.777517386E0
3.754644184E0,9.770078659E-1,1.115695953E0,-8.089151382E-1,1.689279589E0
3.759416528E0,8.655271530E-1,1.158063889E0,-7.362097502E-1,1.622422269E0
3.764187934E0,7.392702103E-1,1.186114788E0,-6.506390572E-1,1.541661414E0
3.768958663E0,5.791530609E-1,1.197515726E0,-5.739438534E-1,1.448749022E0
3.773730121E0,4.235458374E-1,1.230643988E0,-5.279508829E-1,1.404495580E0
3.778502465E0,2.510232925E-1,1.223511934E0,-5.080833435E-1,1.348385268E0
3.783273871E0,7.605361938E-2,1.205157280E0,-5.477010012E-1,1.325957997E0
3.788044601E0,-9.889698029E-2,1.182954311E0,-5.917325020E-1,1.326389411E0
3.792816059E0,-1.520128250E-1,1.221235037E0,-6.877599955E-1,1.409800243E0
3.797588403E0,4.302120209E-2,1.381587029E0,-8.066265583E-1,1.600399933E0
3.802359809E0,-4.724855423E-1,1.272858620E0,-8.813174963E-1,1.618682236E0
3.807130538E0,-9.560079575E-1,1.140288591E0,-9.572433829E-1,1.769328737E0
3.811901996E0,-1.311545372E0,9.824473858E-1,-9.890720844E-1,1.914057919E0
3.816674340E0,-1.498482704E0,8.236205578E-1,-1.065184355E0,2.014551798E0
3.821445798E0,-1.433491707E0,8.191359043E-1,-1.218229532E0,2.051819996E0
3.826216476E0,-1.310881615E0,9.038972855E-1,-1.420707107E0,2.133975069E0
3.830988038E0,-1.310182571E0,9.916987419E-1,-1.545134068E0,2.255545178E0
3.835760278E0,-1.467100143E0,1.051634073E0,-1.610377669E0,2.419014943E0
3.840531736E0,-1.602128983E0,1.078967094E0,-1.597256422E0,2.506434788E0
3.845302413E0,-1.681859016E0,1.083209276E0,-1.553731918E0,2.532997229E0
3.850073976E0,-1.622791290E0,1.111884117E0,-1.520580292E0,2.486343155E0
3.854846215E0,-1.568687916E0,1.126468897E0,-1.468991756E0,2.426448172E0
3.859617673E0,-1.531538486E0,1.148447037E0,-1.420448184E0,2.383739452E0
3.864388351E0,-1.551919460E0,1.146796703E0,-1.332048178E0,2.344770573E0
3.869159913E0,-1.541295528E0,1.166986465E0,-1.222921848E0,2.287572330E0
3.873932153E0,-1.502070904E0,1.161119461E0,-1.083813906E0,2.186107954E0
3.878703611E0,-1.446237564E0,1.167498589E0,-9.481960535E-1,2.086559801E0
3.883474340E0,-1.392871380E0,1.162270784E0,-8.378205299E-1,1.998226038E0
3.888245798E0,-1.327483177E0,1.126427174E0,-6.885740757E-1,1.872213669E0
3.893018142E0,-1.250052452E0,1.107886791E0,-5.842256546E-1,1.769566018E0
3.897789548E0,-1.213105202E0,1.116214514E0,-4.868887663E-1,1.718900737E0
3.902560278E0,-1.159210682E0,1.136978149E0,-3.822778463E-1,1.668120220E0
3.907331736E0,-1.086070538E0,1.205863237E0,-3.492863178E-1,1.660016955E0
3.912104080E0,-9.865431786E-1,1.255807638E0,-3.400770426E-1,1.632780653E0
3.916875486E0,-8.727598190E-1,1.317705154E0,-3.448162079E-1,1.617700465E0
3.921646215E0,-7.830181122E-1,1.353269577E0,-3.562260866E-1,1.603543868E0
3.926417673E0,-6.838359833E-1,1.360115767E0,-3.862137794E-1,1.570575574E0
3.931190017E0,-5.608558655E-1,1.347882032E0,-3.965120316E-1,1.512801066E0
3.935961423E0,-4.618721008E-1,1.345449448E0,-3.846585751E-1,1.473608589E0
3.940732153E0,-3.653116226E-1,1.345660210E0,-4.152747393E-1,1.454890749E0
3.945503715E0,-2.448186874E-1,1.353410959E0,-4.189231396E-1,1.437760067E0
3.950275955E0,-1.433897018E-1,1.344890356E0,-4.124543667E-1,1.414004696E0
3.955047413E0,-5.849075317E-2,1.332268953E0,-4.222857952E-1,1.398816294E0
3.959818090E0,1.715564728E-2,1.339562178E0,-4.174659252E-1,1.403210228E0
3.964589653E0,1.290645599E-1,1.359647751E0,-4.076777697E-1,1.425307276E0
3.969361892E0,2.676429749E-1,1.390073061E0,-3.548460007E-1,1.459401097E0
3.974133351E0,4.065704346E-1,1.485778093E0,-3.476202488E-1,1.579137707E0
3.978904080E0,5.530223846E-1,1.601166487E0,-3.335163593E-1,1.726499649E0
3.983675538E0,6.782035828E-1,1.731232882E0,-3.293012381E-1,1.888270821E0
3.988447830E0,8.083677292E-1,1.861490011E0,-3.205121756E-1,2.054587915E0
3.993219288E0,9.457578659E-1,2.022704124E0,-3.216027021E-1,2.255929568E0
3.997990017E0,1.059229851E0,2.140611649E0,-3.564711809E-1,2.414799745E0
4.002761476E0,1.203543663E0,2.276999950E0,-3.890482187E-1,2.604727364E0
4.007533819E0,1.352232933E0,2.355140209E0,-4.240417480E-1,2.748641613E0
4.012305226E0,1.488360405E0,2.444187880E0,-4.803262949E-1,2.901720944E0
4.017075955E0,1.602273941E0,2.469947577E0,-5.097450018E-1,2.987936207E0
4.021847413E0,1.705888748E0,2.449199200E0,-5.623816252E-1,3.037253074E0
4.026619757E0,1.818355560E0,2.372547865E0,-5.662494898E-1,3.042373876E0
4.031391163E0,1.915810585E0,2.244977713E0,-5.572581291E-1,3.003463293E0
4.036161892E0,1.993705750E0,2.097979784E0,-5.427676439E-1,2.944652527E0
4.040933351E0,2.080903053E0,1.958159208E0,-5.251213312E-1,2.905218996E0
4.045705694E0,2.182251930E0,1.816060781E0,-4.781063795E-1,2.879042542E0
4.050477101E0,2.262036324E0,1.710147142E0,-4.570128918E-1,2.872328735E0
4.055247830E0,2.377787590E0,1.616643906E0,-4.307751656E-1,2.907400658E0
4.060019392E0,2.503126144E0,1.542675495E0,-3.897532225E-1,2.966040417E0
4.064791632E0,2.681141853E0,1.478725433E0,-3.842654228E-1,3.085905128E0
4.069563090E0,2.852034569E0,1.388957500E0,-3.665016890E-1,3.193372451E0
4.074333767E0,3.046933174E0,1.328469753E0,-3.483822346E-1,3.342155567E0
4.079105330E0,3.215667725E0,1.316367149E0,-3.254299164E-1,3.489877651E0
4.083877569E0,3.394115448E0,1.354931355E0,-2.904926538E-1,3.666093920E0
4.088649028E0,3.517621040E0,1.427193165E0,-2.914569378E-1,3.807293692E0
4.093419705E0,3.662753105E0,1.566529274E0,-2.829402685E-1,3.993723760E0
4.098191267E0,3.759976387E0,1.767787695E0,-2.386645079E-1,4.161665113E0
4.102963507E0,3.821144104E0,2.023428679E0,-1.874495745E-1,4.327879761E0
4.107734965E0,3.834056854E0,2.297030210E0,-1.389513016E-1,4.471649272E0
4.112505694E0,3.851069450E0,2.604855299E0,-1.217470169E-1,4.650895546E0
4.117277153E0,3.995945930E0,2.883941412E0,-1.424849033E-1,4.930010537E0
4.122049496E0,4.272710800E0,2.999686241E0,-2.291687727E-1,5.225580681E0
4.126820903E0,4.609042168E0,2.944626093E0,-3.309729099E-1,5.479382775E0
4.131591632E0,4.870831490E0,2.716476440E0,-3.424088955E-1,5.587619127E0
4.136363090E0,4.972474098E0,2.437986612E0,-2.852460146E-1,5.545326200E0
4.141135434E0,4.979043961E0,2.224472523E0,-1.835836172E-1,5.456451201E0
4.145906840E0,4.955718994E0,2.078884125E0,7.421255112E-3,5.374101323E0
4.150677569E0,4.886365891E0,1.965917826E0,2.413120270E-1,5.272536013E0
4.155449028E0,4.764187813E0,1.866729975E0,4.719133377E-1,5.138566776E0
4.160221371E0,4.601636887E0,1.834377050E0,6.888399124E-1,5.001449952E0
4.164992778E0,4.396545410E0,1.844985962E0,8.747546673E-1,4.847554071E0
4.169763507E0,4.278053284E0,1.910408020E0,9.602979422E-1,4.782632208E0
4.174535069E0,4.265044212E0,1.939515352E0,9.552024603E-1,4.781708238E0
4.179307309E0,4.314050674E0,1.953576803E0,9.056303501E-1,4.821582923E0
4.184078767E0,4.403091431E0,1.906787634E0,8.124692440E-1,4.866534650E0
4.188849444E0,4.493705750E0,1.825439453E0,7.146140337E-1,4.902682304E0
4.193621007E0,4.511723518E0,1.769402981E0,6.699020863E-1,4.892361886E0
4.198393246E0,4.490653038E0,1.772096157E0,6.522672176E-1,4.871523583E0
4.203164705E0,4.466469765E0,1.814450264E0,6.665939093E-1,4.866819224E0
4.207935382E0,4.443990707E0,1.908341646E0,7.173691988E-1,4.889318952E0
4.212706944E0,4.408892632E0,2.056027889E0,7.921756506E-1,4.928805857E0
4.217479184E0,4.375421524E0,2.226064920E0,8.690868616E-1,4.985477963E0
4.222250642E0,4.331480980E0,2.406122684E0,9.619911909E-1,5.047433100E0
4.227021371E0,4.303150177E0,2.593375921E0,1.006214738E0,5.123979724E0
4.231792830E0,4.323622704E0,2.787306309E0,1.030249596E0,5.246351491E0
4.236565121E0,4.337493896E0,2.951497078E0,1.043899059E0,5.349290939E0
4.241336580E0,4.346910477E0,3.066470861E0,9.924757481E-1,5.411458431E0
4.246107309E0,4.354045868E0,3.072175503E0,9.051330090E-1,5.405112719E0
4.250878767E0,4.370595932E0,2.963611603E0,8.136118650E-1,5.342945517E0
4.255651111E0,4.394132614E0,2.908326626E0,7.544749975E-1,5.323156743E0
4.260422517E0,4.348342896E0,2.779788017E0,7.994871140E-1,5.222498157E0
4.265193246E0,4.214509964E0,2.580900192E0,8.145660162E-1,5.008658287E0
4.269964705E0,4.138891220E0,2.321730375E0,8.285387754E-1,4.817398569E0
4.274737048E0,4.038062096E0,2.010009050E0,8.772910833E-1,4.595184601E0
4.279508455E0,3.929108620E0,1.698826075E0,9.414621592E-1,4.382950556E0
4.284279184E0,3.802790642E0,1.395759344E0,1.058998108E0,4.186984333E0
4.289050746E0,3.637932777E0,1.134642124E0,1.164659023E0,3.984770794E0
4.293822986E0,3.444345474E0,9.036262035E-1,1.300894260E0,3.791092447E0
4.298594444E0,3.253440857E0,7.269115448E-1,1.445405602E0,3.633521042E0
4.303365121E0,3.024766922E0,6.166062355E-1,1.607191563E0,3.480299255E0
4.308136684E0,2.770501137E0,5.632596016E-1,1.735490799E0,3.317358323E0
4.312908923E0,2.486100197E0,5.479731560E-1,1.849050164E0,3.146419438E0
4.317680382E0,2.209861755E0,5.946116447E-1,1.914354563E0,2.983589345E0
4.322451059E0,1.932211876E0,6.815774441E-1,1.945757627E0,2.825590786E0
4.327222621E0,1.657822609E0,7.727730274E-1,1.988945007E0,2.702120685E0
4.331994861E0,1.334113121E0,9.424507618E-1,1.977265716E0,2.564693153E0
4.336766319E0,4.216375351E-1,1.472224951E0,1.901419759E0,2.441438432E0
4.341537048E0,8.513832092E-2,1.356752634E0,1.659742713E0,2.145407215E0
4.346308507E0,4.017038345E-1,1.477049589E0,1.621579647E0,2.229924216E0
4.351080851E0,2.342128754E-1,1.444260359E0,1.667266250E0,2.218224606E0
4.355852257E0,3.008460999E-2,1.386772394E0,1.643419266E0,2.150551008E0
4.360622986E0,-1.414012909E-1,1.342356443E0,1.640654802E0,2.124538380E0
4.365394444E0,-3.732690811E-1,1.297045946E0,1.587086558E0,2.083387083E0
4.370166788E0,-6.913461685E-1,1.265814781E0,1.565988779E0,2.128982724E0
4.374938194E0,-1.078337669E0,1.280142784E0,1.616430283E0,2.326891604E0
4.379708923E0,-1.426301003E0,1.258896112E0,1.603644967E0,2.488138089E0
4.384480382E0,-1.730313301E0,1.121218681E0,1.515947104E0,2.559142644E0
4.389252726E0,-2.028552055E0,9.657089710E-1,1.346772313E0,2.619429885E0
4.394024132E0,-2.316184044E0,7.785222530E-1,1.092525244E0,2.676642829E0
4.398794861E0,-2.554953098E0,5.577569008E-1,8.022755384E-1,2.735420285E0
4.403566423E0,-2.740154266E0,3.182175159E-1,5.608270168E-1,2.815001729E0
4.408338663E0,-2.907692432E0,9.392571449E-2,3.187949657E-1,2.926623917E0
4.413110121E0,-3.124384880E0,-7.601070404E-2,1.724510193E-1,3.130063555E0
4.417880798E0,-3.504549980E0,-2.260942459E-1,2.134144306E-2,3.511900430E0
4.422652361E0,-3.598424911E0,-4.204211235E-1,-1.295197010E-1,3.625216010E0
4.427424601E0,-3.387454987E0,-6.450822353E-1,-1.464030743E-1,3.451436837E0
4.432196059E0,-3.321619987E0,-8.764035702E-1,-1.543413401E-1,3.438759051E0
4.436966736E0,-3.176135063E0,-1.162636280E0,-1.989705563E-1,3.388088892E0
4.441738298E0,-3.156710625E0,-1.386049271E0,-2.200454473E-1,3.454616411E0
4.446510538E0,-3.117291927E0,-1.605903387E0,-2.721401453E-1,3.517171436E0
4.451281996E0,-3.041272640E0,-1.707765102E0,-1.379264593E-1,3.490676815E0
4.456052726E0,-2.914512634E0,-1.745005846E0,-6.667101383E-2,3.397627749E0
4.460824184E0,-2.804125309E0,-1.794517279E0,-2.014172077E-2,3.329236654E0
4.465596528E0,-2.614611626E0,-1.902047873E0,-2.670633793E-2,3.233371815E0
4.470367934E0,-2.489588737E0,-1.976699591E0,-4.312193394E-2,3.179190597E0
4.475138663E0,-2.359754086E0,-1.997797966E0,1.126503944E-2,3.091886634E0
4.479910121E0,-2.340052605E0,-2.040202141E0,-2.375125885E-3,3.104557393E0
4.484682465E0,-2.198499680E0,-2.111294031E0,-5.744040012E-2,3.048649328E0
4.489453871E0,-2.198286057E0,-2.182411909E0,-4.862821102E-2,3.098023246E0
4.494224601E0,-2.147911549E0,-2.265485764E0,-5.269134045E-2,3.122295012E0
4.498996059E0,-2.078495502E0,-2.379778385E0,-8.190941811E-2,3.160727427E0
4.503768403E0,-2.059373856E0,-2.484532118E0,-1.004507542E-1,3.228623681E0
4.508539809E0,-2.054560661E0,-2.603455782E0,-1.537574530E-1,3.320066697E0
4.513310538E0,-2.025669098E0,-2.728849649E0,-1.772072315E-1,3.403139449E0
4.518082101E0,-2.037205219E0,-2.857828617E0,-2.041780949E-1,3.515548066E0
4.522854340E0,-2.067513466E0,-2.968274117E0,-2.440218925E-1,3.625577174E0
4.527625798E0,-2.111662865E0,-3.038053036E0,-2.632596493E-1,3.709203681E0
4.532396476E0,-2.214955807E0,-3.047472000E0,-2.428138256E-1,3.775191832E0
4.537168038E0,-2.331839561E0,-3.017753839E0,-2.233464718E-1,3.820235284E0
4.541940278E0,-2.340428352E0,-2.949090719E0,-1.974509954E-1,3.770109791E0
4.546711736E0,-2.346114159E0,-2.851336241E0,-1.437076330E-1,3.695270205E0
4.551482413E0,-2.320283890E0,-2.746568203E0,-6.240403652E-2,3.596004517E0
4.556253976E0,-2.275012970E0,-2.654397964E0,-8.694052696E-3,3.495938809E0
4.561026215E0,-2.179273605E0,-2.541650295E0,7.701230049E-2,3.348902890E0
4.565797673E0,-2.088160038E0,-2.432662964E0,1.728001833E-1,3.210626316E0
4.570568403E0,-2.006445885E0,-2.353811741E0,2.856931686E-1,3.106102926E0
4.575339861E0,-1.862453461E0,-2.267369270E0,3.627061844E-1,2.956560853E0
4.580112205E0,-1.732800484E0,-2.235831261E0,4.489994049E-1,2.864112325E0
4.584883611E0,-1.705925941E0,-2.216101170E0,5.204571486E-1,2.844672803E0
4.589654340E0,-1.554590225E0,-2.241842270E0,5.819097757E-1,2.789484992E0
4.594425798E0,-1.563478470E0,-2.293747425E0,6.358133554E-1,2.847806313E0
4.599198142E0,-1.412018776E0,-2.400598526E0,6.703490019E-1,2.864618315E0
4.603969548E0,-1.284534454E0,-2.521628857E0,6.976585388E-1,2.914681508E0
4.608740278E0,-1.166614532E0,-2.644607067E0,7.345761657E-1,2.982371229E0
4.613511736E0,-1.134673119E0,-2.783257008E0,7.693270445E-1,3.102558099E0
4.618284080E0,-1.033069611E0,-2.984569550E0,7.712172866E-1,3.251102016E0
4.623055538E0,-9.334726334E-1,-3.156754971E0,8.262331486E-1,3.393985020E0
4.627826215E0,-1.461812019E0,-3.086620331E0,1.172682285E0,3.610997534E0
4.632597778E0,-1.681922913E0,-2.343150377E0,1.225783348E0,3.133969239E0
4.637370017E0,-1.704042435E0,-2.372641087E0,1.147377968E0,3.138417204E0
4.642141476E0,-1.528421402E0,-2.559846401E0,1.091181397E0,3.174832660E0
4.646912153E0,-1.174686432E0,-2.892180920E0,1.124176979E0,3.317886762E0
4.651683715E0,-2.180728912E-1,-3.469326735E0,1.195487022E0,3.675999592E0
4.656455955E0,2.116756439E-1,-4.116712570E0,1.194334745E0,4.291685502E0
4.661227413E0,4.019861221E-1,-4.553449631E0,1.272563815E0,4.744988414E0
4.665998090E0,5.395917892E-1,-4.840256214E0,1.369042397E0,5.059003519E0
4.670769653E0,6.054258347E-1,-4.891426086E0,1.508625150E0,5.154467911E0
4.675541892E0,7.835950851E-1,-4.961186409E0,1.647073030E0,5.285852950E0
4.680313351E0,1.032943726E0,-5.075112343E0,1.783092856E0,5.477513867E0
4.685084080E0,1.161722183E0,-5.229915619E0,1.896429896E0,5.683138408E0
4.689855538E0,1.301229477E0,-5.441308975E0,1.883389115E0,5.903236068E0
4.694627882E0,1.417660713E0,-5.722372055E0,1.860599399E0,6.182000805E0
4.699399288E0,1.596953392E0,-6.076066971E0,1.855766416E0,6.550780027E0
4.704170017E0,1.726328850E0,-6.492224693E0,2.228613853E0,7.077846599E0
4.708941476E0,1.803634644E0,-6.726694584E0,2.822673798E0,7.514586171E0
4.713713819E0,8.258838654E-1,-6.451580524E0,3.039207220E0,7.179258733E0
4.718485226E0,2.015142441E-1,-6.047125816E0,2.867996216E0,6.695800245E0
4.723255955E0,-1.624193192E-1,-5.765609741E0,2.585439444E0,6.320849060E0
4.728027517E0,-5.025901794E-1,-5.674169540E0,2.273094416E0,6.133168438E0
4.732799757E0,-8.906879425E-1,-5.673983097E0,2.004142761E0,6.083091106E0
4.737571215E0,-1.298141479E0,-5.665411949E0,1.807709813E0,6.086861147E0
4.742341892E0,-1.538667679E0,-5.590006351E0,1.638425827E0,6.024957131E0
4.747113455E0,-1.746555328E0,-5.362753868E0,1.482178211E0,5.831503821E0
4.751885694E0,-1.931515217E0,-5.094345093E0,1.258157969E0,5.591606606E0
4.756657153E0,-2.043338776E0,-4.863337517E0,9.507468939E-1,5.360149700E0
4.761427830E0,-2.160994530E0,-4.731311321E0,6.329221129E-1,5.239827724E0
4.766199392E0,-2.303637981E0,-4.678529739E0,3.395873904E-1,5.225964798E0
4.770971632E0,-2.375720501E0,-4.628299713E0,1.006937027E-1,5.203397482E0
4.775743090E0,-2.382283688E0,-4.487637997E0,-6.151533127E-2,5.081137126E0
4.780513819E0,-2.316408157E0,-4.285984993E0,-4.428219795E-2,4.872101705E0
4.785285278E0,-2.269165039E0,-4.014258385E0,-2.232968807E-2,4.611277368E0
4.790057621E0,-2.152286053E0,-3.787973642E0,-4.800081253E-3,4.356730725E0
4.794829028E0,-2.037811756E0,-3.540682077E0,7.575500011E-2,4.085932592E0
4.799599757E0,-1.892509460E0,-3.246892691E0,2.410260439E-1,3.765899329E0
4.804371215E0,-1.745264053E0,-2.907166481E0,4.406663179E-1,3.419320162E0
4.809143559E0,-1.622505188E0,-2.558024168E0,6.359860897E-1,3.095236507E0
4.813914965E0,-1.519548416E0,-2.185754776E0,8.002517223E-1,2.779739943E0
4.818685694E0,-1.407742500E0,-1.884155273E0,9.495557547E-1,2.536421923E0
4.823457153E0,-1.303875923E0,-1.622531176E0,1.063962221E0,2.337673084E0
4.828229496E0,-1.255709648E0,-1.417746067E0,1.214316130E0,2.249749829E0
4.833000903E0,-1.241605759E0,-1.276913643E0,1.227890968E0,2.163286745E0
4.837771632E0,-1.232666016E0,-1.192509413E0,1.204519272E0,2.095807931E0
4.842543194E0,-1.257440567E0,-1.149925470E0,1.145936489E0,2.053449733E0
4.847315434E0,-1.229628563E0,-1.141632080E0,1.049022436E0,1.978827501E0
4.852086892E0,-1.244803429E0,-1.143409491E0,9.779094458E-1,1.952748761E0
4.856857569E0,-1.264489174E0,-1.169204712E0,8.675928116E-1,1.928390473E0
4.861629132E0,-1.281446457E0,-1.204529762E0,7.250944376E-1,1.902303581E0
4.866401371E0,-1.271723747E0,-1.225319862E0,5.504608154E-1,1.849783005E0
4.871172830E0,-1.266391754E0,-1.224168301E0,3.535441160E-1,1.796476982E0
4.875943559E0,-1.272537231E0,-1.203240871E0,1.703060865E-1,1.759586248E0
4.880715017E0,-1.225555420E0,-1.162444353E0,2.476418018E-2,1.689341951E0
4.885487361E0,-1.151826859E0,-1.070709705E0,-1.212027073E-1,1.577280724E0
4.890258767E0,-1.065771103E0,-9.760055542E-1,-2.100222111E-1,1.460330173E0
4.895029496E0,-9.842090607E-1,-8.809478283E-1,-3.589086533E-1,1.368777547E0
4.899800955E0,-8.402776718E-1,-7.977371216E-1,-4.744352102E-1,1.252014317E0
4.904573298E0,-6.914710999E-1,-6.667110920E-1,-5.878078938E-1,1.126123476E0
4.909344861E0,-5.307455063E-1,-5.671467781E-1,-6.965211630E-1,1.043306279E0
4.914115434E0,-3.964471817E-1,-5.231313705E-1,-8.149889112E-1,1.046443369E0
4.918886892E0,-2.909946442E-1,-4.677631855E-1,-9.311593771E-1,1.081914075E0
4.923659236E0,-1.714210510E-1,-4.132883549E-1,-1.028281450E0,1.121407679E0
4.928430642E0,-9.996891022E-2,-3.455426693E-1,-1.063527107E0,1.122712531E0
4.933201371E0,-6.464481354E-2,-2.790100574E-1,-1.097009540E0,1.133779297E0
4.937972934E0,-8.000373840E-3,-2.160124779E-1,-1.138328433E0,1.158670366E0
4.942745173E0,-4.004383087E-2,-1.636722088E-1,-1.156404972E0,1.168616515E0
4.947516632E0,-1.510152817E-1,-1.529588699E-1,-1.144503236E0,1.164512640E0
4.952287309E0,-2.761449814E-1,-1.405568123E-1,-1.153099298E0,1.194005972E0
4.957058871E0,-4.154005051E-1,-8.340883255E-2,-1.201362371E0,1.273886243E0
4.961831111E0,-4.659347534E-1,9.034156799E-3,-1.248225451E0,1.332382672E0
4.966602569E0,-5.043668747E-1,1.129119396E-1,-1.255213976E0,1.357459825E0
4.971373246E0,-5.427331924E-1,2.305512428E-1,-1.222087502E0,1.356912325E0
4.976144809E0,-6.145572662E-1,2.948925495E-1,-1.177514076E0,1.360581364E0
4.980917048E0,-6.242055893E-1,3.608794212E-1,-1.164574981E0,1.369708531E0
4.985688507E0,-6.697921753E-1,4.429452419E-1,-1.197335720E0,1.441677798E0
4.990459236E0,-6.820192337E-1,5.074806213E-1,-1.251594782E0,1.513002417E0
4.995230694E0,-7.039003372E-1,5.355498791E-1,-1.284298182E0,1.559394490E0
5.000003038E0,-7.114839554E-1,5.870380402E-1,-1.321812630E0,1.611834888E0
5.004774444E0,-7.166652679E-1,6.501584053E-1,-1.323454142E0,1.639465133E0
5.009545173E0,-7.314281464E-1,7.176675797E-1,-1.332333803E0,1.680817435E0
5.014316632E0,-7.438373566E-1,7.463936806E-1,-1.329464436E0,1.696429552E0
5.019088976E0,-7.347126007E-1,7.723486423E-1,-1.338870406E0,1.711402640E0
5.023860382E0,-7.471075058E-1,7.572965622E-1,-1.360568881E0,1.727082913E0
5.028631111E0,-7.498798370E-1,7.301259041E-1,-1.322613239E0,1.686626629E0
5.033402673E0,-7.477636337E-1,7.220501900E-1,-1.268176913E0,1.639749863E0
5.038174913E0,-7.814245224E-1,7.162494659E-1,-1.235616207E0,1.628000305E0
5.042946319E0,2.330026627E-1,3.430025578E-1,-1.148669720E0,1.221221978E0
5.047717048E0,1.822577477E0,3.626775742E-2,-7.457158566E-1,1.969567502E0
5.052488611E0,-9.883432388E-1,5.399184227E-1,-4.713348150E-1,1.220856572E0
5.057260851E0,-1.911903381E0,8.745880127E-1,-7.124785185E-1,2.219888369E0
5.062032309E0,-8.970441818E-1,1.054253340E0,-1.032077312E0,1.726650500E0
5.066802986E0,-9.620018005E-1,1.248142004E0,-9.382586479E-1,1.834021597E0
5.071574548E0,-1.528729439E0,1.344703913E0,-7.163323164E-1,2.158326736E0
5.076346788E0,-1.649405479E0,1.303920746E0,-8.020285368E-1,2.250332758E0
5.081118246E0,-1.413124084E0,1.054182053E0,-1.089483023E0,2.072484677E0
5.085888976E0,-1.045450211E0,7.937517166E-1,-1.137728810E0,1.737076503E0
5.090660434E0,-8.692665100E-1,5.680844784E-1,-9.976645708E-1,1.440027373E0
5.095432726E0,-7.120151520E-1,4.082393646E-1,-8.424749374E-1,1.176175572E0
5.100204184E0,-5.879497528E-1,3.355102539E-1,-7.230732441E-1,9.904983385E-1
5.104974913E0,-5.160789490E-1,3.904299736E-1,-5.728634596E-1,8.642601398E-1
5.109746371E0,-5.058917999E-1,5.369434357E-1,-4.421682358E-1,8.600857603E-1
5.114518715E0,-4.354143143E-1,7.150583267E-1,-2.974346876E-1,8.884601449E-1
5.119290121E0,-3.455162048E-1,8.958144188E-1,-2.269464731E-1,9.865949637E-1
5.124060851E0,-2.052450180E-1,1.002498627E0,-1.827248335E-1,1.039479379E0
5.128832309E0,-4.832744598E-2,1.087417603E0,-7.155132294E-2,1.090840124E0
5.133604653E0,1.084070206E-1,1.179078579E0,-6.116032600E-3,1.184067474E0
5.138376059E0,2.744750977E-1,1.241359949E0,6.342124939E-2,1.272923155E0
5.143146788E0,4.235057831E-1,1.278941631E0,1.034539938E-1,1.351203750E0
5.147918351E0,5.673713684E-1,1.339482546E0,9.008622169E-2,1.457477028E0
5.152690590E0,7.322454453E-1,1.453906536E0,4.757046700E-2,1.628585447E0
5.157462048E0,8.200149536E-1,1.576688051E0,-3.111112118E-2,1.777452570E0
5.162232726E0,8.929300308E-1,1.734098673E0,-1.435540915E-1,1.955768397E0
5.167004288E0,9.724693298E-1,1.873503208E0,-2.942266464E-1,2.131262581E0
5.171776528E0,1.058596611E0,1.973447084E0,-4.494152069E-1,2.284095928E0
5.176547986E0,1.122529030E0,2.065011263E0,-5.898002386E-1,2.423263762E0
5.181318663E0,1.188175201E0,2.153002262E0,-7.152801752E-1,2.561016357E0
5.186090226E0,1.229269981E0,2.204149008E0,-8.016616106E-1,2.648025467E0
5.190862517E0,1.257817268E0,2.242525578E0,-9.133886099E-1,2.728608436E0
5.195633923E0,1.290693283E0,2.249231577E0,-9.859127998E-1,2.774338820E0
5.200404653E0,1.328034401E0,2.234051943E0,-1.033839703E0,2.797049872E0
5.205176111E0,1.350869179E0,2.218741417E0,-1.007194638E0,2.786054926E0
5.209948455E0,1.359309196E0,2.157866478E0,-9.591159821E-1,2.724704148E0
5.214719861E0,1.360550880E0,2.163880348E0,-9.493967295E-1,2.726688653E0
5.219490590E0,1.400120735E0,2.150780916E0,-9.133998156E-1,2.724058708E0
5.224262048E0,1.454093933E0,2.183173656E0,-9.205887318E-1,2.779949639E0
5.229034392E0,1.527235985E0,2.194051504E0,-9.015672207E-1,2.821193933E0
5.233805798E0,1.633834839E0,2.178569794E0,-9.114474058E-1,2.871640472E0
5.238576528E0,1.759395599E0,2.182024479E0,-9.095060825E-1,2.946846622E0
5.243348090E0,1.872705460E0,2.194701433E0,-9.076101780E-1,3.024482824E0
5.248120330E0,1.961721420E0,2.204524517E0,-9.103783369E-1,3.088214370E0
5.252891788E0,2.036056519E0,2.197253942E0,-9.295849800E-1,3.136491554E0
5.257662465E0,2.121939659E0,2.179968596E0,-8.647207022E-1,3.162693929E0
5.262434028E0,2.217040062E0,2.155150890E0,-8.283888102E-1,3.200963920E0
5.267206267E0,2.314088821E0,2.125055552E0,-7.943050861E-1,3.240646346E0
5.271977726E0,2.410778046E0,2.085013390E0,-7.721234560E-1,3.279528358E0
5.276748403E0,2.502346039E0,2.080478430E0,-7.929856777E-1,3.349470478E0
5.281519965E0,2.540937424E0,2.085216284E0,-8.564032316E-1,3.396750865E0
5.286292205E0,2.564917564E0,2.130379915E0,-8.809870481E-1,3.448689443E0
5.291063663E0,2.538377762E0,2.244571447E0,-9.240462780E-1,3.512168015E0
5.295834392E0,2.516306877E0,2.370299339E0,-9.781523943E-1,3.592617620E0
5.300605851E0,2.450730324E0,2.524144411E0,-1.019165993E0,3.662797216E0
5.305378194E0,2.387063026E0,2.705997705E0,-1.037455082E0,3.754571416E0
5.310149601E0,2.363364220E0,2.862969398E0,-1.085505605E0,3.867868487E0
5.314920330E0,2.341306686E0,2.992592573E0,-1.063079000E0,3.945562605E0
5.319691788E0,2.347162247E0,3.066280603E0,-1.046474338E0,4.000794407E0
5.324464132E0,2.347470284E0,3.048259020E0,-9.736955166E-1,3.968700385E0
5.329235538E0,2.428190231E0,3.002965927E0,-8.449022770E-1,3.953197695E0
5.334006267E0,3.169007301E0,3.437734604E0,-7.487214804E-1,4.735104047E0
5.338777830E0,3.753437042E0,3.607428074E0,-4.543639421E-1,5.225731866E0
5.343550069E0,3.484509468E0,2.775084257E0,-1.942179203E-1,4.458768829E0
5.348321528E0,3.115053177E0,1.766165257E0,4.654645920E-2,3.581209653E0
5.353092205E0,2.823014259E0,8.851819038E-1,5.719537735E-1,3.013318375E0
5.357863767E0,2.943396568E0,2.183203697E-1,7.496378422E-1,3.045193596E0
5.362636007E0,3.535243988E0,-2.155933380E-1,8.391036987E-1,3.639852409E0
5.367407465E0,4.179511070E0,-5.123872757E-1,9.268792868E-1,4.311607440E0
5.372178194E0,4.546339035E0,-7.891740799E-1,1.129987359E0,4.750670035E0
5.376949653E0,4.605426788E0,-1.148290634E0,1.416710854E0,4.953341996E0
5.381721944E0,4.481792450E0,-1.491165638E0,1.693631411E0,5.017810865E0
5.386493403E0,4.371883392E0,-1.786199570E0,1.813349009E0,5.058864292E0
5.391264132E0,4.380666733E0,-1.947171688E0,1.758401632E0,5.106240780E0
5.396035590E0,4.779956818E0,-1.848026752E0,1.573325396E0,5.360834157E0
5.400807934E0,5.081096649E0,-1.649755478E0,1.521661758E0,5.554699884E0
5.405579340E0,5.119036674E0,-1.391161919E0,1.593346596E0,5.538828516E0
5.410350069E0,5.025443077E0,-1.075167656E0,1.771008730E0,5.435764484E0
5.415121528E0,4.931396484E0,-6.214833260E-1,1.918207407E0,5.327704240E0
5.419893871E0,4.905489922E0,-7.667255402E-2,1.961368561E0,5.283623443E0
5.424665278E0,4.856142044E0,5.367646217E-1,1.982193470E0,5.272506308E0
5.429436007E0,4.668209076E0,1.141572475E0,2.014069796E0,5.210742829E0
5.434207569E0,4.432374001E0,1.722757339E0,2.094965458E0,5.196413417E0
5.438979809E0,4.165048599E0,2.265326738E0,2.152926207E0,5.207151459E0
5.443751267E0,3.911355972E0,2.764051437E0,2.166665554E0,5.256721936E0
5.448521944E0,3.623151779E0,3.153926611E0,2.179367065E0,5.274857599E0
5.453293507E0,3.229103088E0,3.382366657E0,2.289970398E0,5.206868097E0
5.458065746E0,2.787054062E0,3.473565102E0,2.363623619E0,5.041829179E0
5.462837205E0,2.614676476E0,3.486956120E0,2.334081411E0,4.944019831E0
5.467607882E0,3.399691582E0,3.882822514E0,2.016914368E0,5.540952724E0
5.472379444E0,1.948748589E0,3.171062946E0,2.559617043E0,4.517178398E0
5.477151684E0,7.409381866E-1,2.527160406E0,2.631833792E0,3.723181196E0
5.481923142E0,-1.971235275E-1,2.000279665E0,2.519749880E0,3.223215146E0
5.486693871E0,3.513240814E-2,2.013271093E0,2.012472153E0,2.846847194E0
5.491465330E0,3.815221786E-1,1.881628275E0,1.496575356E0,2.434301118E0
5.496237673E0,7.727050781E-2,1.489385366E0,1.278437853E0,1.964342853E0
5.501009080E0,-4.005317688E-1,1.093493938E0,1.271502972E0,1.724202569E0
5.505779809E0,-5.854797363E-1,7.920148373E-1,1.298830748E0,1.630041513E0
5.510551267E0,-5.449552536E-1,4.630417824E-1,1.248518944E0,1.438813217E0
5.515323611E0,-5.063629150E-1,9.746551514E-2,1.147627592E0,1.258154211E0
5.520095017E0,-5.222339630E-1,-2.422714233E-1,1.103895187E0,1.244993309E0
5.524865746E0,-5.183935165E-1,-5.369720459E-1,1.088703156E0,1.319979309E0
5.529637309E0,-4.304952621E-1,-7.366070747E-1,1.047399759E0,1.350911696E0
5.534409548E0,-2.470026016E-1,-8.894391060E-1,1.006834507E0,1.365953123E0
5.539180955E0,-9.969902039E-2,-9.694209099E-1,1.036522627E0,1.422707261E0
5.543951684E0,8.299160004E-2,-9.460382462E-1,1.097963095E0,1.451688302E0
5.548723246E0,2.553977966E-1,-9.083871841E-1,1.131188393E0,1.473086043E0
5.553495486E0,4.126939774E-1,-8.688220978E-1,1.188372850E0,1.528855189E0
5.558266944E0,5.332536697E-1,-8.349275589E-1,1.231056690E0,1.580178496E0
5.563037621E0,6.075658798E-1,-7.591900826E-1,1.351984739E0,1.665343393E0
5.567809184E0,6.285161972E-1,-6.228742599E-1,1.481150389E0,1.725343858E0
5.572581423E0,6.177530289E-1,-4.502758980E-1,1.601110697E0,1.774238612E0
5.577352882E0,5.610361099E-1,-3.440904617E-1,1.673804998E0,1.798550231E0
5.582123611E0,5.491752625E-1,-2.465243340E-1,1.636037827E0,1.743269195E0
5.586895069E0,4.220266342E-1,-1.837253571E-1,1.674415231E0,1.736527527E0
5.591667413E0,4.384613037E-2,-1.075177193E-1,1.570188761E0,1.574476195E0
5.596438819E0,-2.594223022E-1,-2.242398262E-2,1.537329674E0,1.559225863E0
5.601209548E0,-7.168750763E-1,3.838777542E-2,1.545102835E0,1.703738908E0
5.605981007E0,-1.026713371E0,9.700727463E-2,1.425446272E0,1.759388482E0
5.610753351E0,-1.485318184E0,1.301867962E-1,1.343168378E0,2.006793462E0
5.615524757E0,-1.726593018E0,1.101663113E-1,1.103345275E0,2.051982178E0
5.620295486E0,-2.049432755E0,1.283426285E-1,1.054610610E0,2.308430199E0
5.625066944E0,-2.451136589E0,1.705482006E-1,9.304102659E-1,2.627321931E0
5.629839288E0,-2.649554729E0,2.321252823E-1,7.504559755E-1,2.763549634E0
5.634610746E0,-2.738462448E0,2.531461716E-1,6.376301050E-1,2.823089038E0
5.639381423E0,-2.749350548E0,3.052248955E-1,4.850709438E-1,2.808448770E0
5.644152986E0,-2.804376125E0,3.451056480E-1,3.789811134E-1,2.850833219E0
5.648925226E0,-2.846436501E0,3.125591278E-1,2.435059547E-1,2.873880497E0
5.653696684E0,-1.863040924E0,4.589815140E-1,-3.131954670E-1,1.944139119E0
5.658467361E0,-1.942589283E0,3.254814148E-1,-4.664624929E-1,2.024148841E0
5.663238923E0,-3.151870251E0,7.969999313E-2,2.999709845E-1,3.167115526E0
5.668011163E0,-3.958842754E0,-3.089308739E-2,8.157920837E-1,4.042141395E0
5.672782621E0,-3.487303257E0,5.714106560E-2,5.074665546E-1,3.524495909E0
5.677553351E0,-2.664956093E0,1.251254082E-1,-2.056363821E-1,2.675805237E0
5.682324809E0,-2.522819996E0,9.658455849E-2,-4.142991304E-1,2.558435670E0
5.687097101E0,-2.777760983E0,6.933617592E-2,-1.204562187E-1,2.781235927E0
5.691868559E0,-2.752760410E0,7.618308067E-2,1.536659002E-1,2.758098430E0
5.696639288E0,-2.393565178E0,9.486126900E-2,1.220264435E-1,2.398550265E0
5.701410746E0,-2.061862946E0,1.417324543E-1,1.562561989E-1,2.072627051E0
5.706183090E0,-1.865260124E0,1.565442085E-1,3.180290461E-1,1.898642645E0
5.710954496E0,-1.815444946E0,1.558346748E-1,5.155168772E-1,1.893642640E0
5.715725226E0,-1.747138500E0,1.108593941E-1,6.596082449E-1,1.870792821E0
5.720496684E0,-1.722410679E0,1.458835602E-2,7.858598232E-1,1.893274156E0
5.725269028E0,-1.767189026E0,-1.227805614E-1,9.055680037E-1,1.989493787E0
5.730040434E0,-1.804659367E0,-2.959480286E-1,9.634165764E-1,2.067015279E0
5.734811163E0,-1.820302963E0,-4.947731495E-1,9.642177820E-1,2.118494578E0
5.739582726E0,-1.833158493E0,-6.710104942E-1,9.534938335E-1,2.172527476E0
5.744354965E0,-1.855042458E0,-8.505628109E-1,9.263775349E-1,2.241163749E0
5.749126423E0,-1.859549046E0,-9.995973110E-1,9.092555046E-1,2.298665485E0
5.753897101E0,-1.837073326E0,-1.158585787E0,8.949223757E-1,2.349052041E0
5.758668663E0,-1.780395985E0,-1.310408354E0,9.122177362E-1,2.391468401E0
5.763440903E0,-1.718210220E0,-1.421487808E0,9.609766006E-1,2.428240099E0
5.768212361E0,-1.648131847E0,-1.494155884E0,1.017449617E0,2.446230593E0
5.772983038E0,-1.589329720E0,-1.557244778E0,1.067259789E0,2.467797340E0
5.777754601E0,-1.508402824E0,-1.608578205E0,1.136937618E0,2.481013920E0
5.782526840E0,-1.395864487E0,-1.626787663E0,1.228964090E0,2.470876059E0
5.787298298E0,-1.287657738E0,-1.621673346E0,1.309703350E0,2.450144844E0
5.792069028E0,-1.181465149E0,-1.562490225E0,1.417365789E0,2.417883658E0
5.796840486E0,-1.079667091E0,-1.509139061E0,1.515882730E0,2.396055547E0
5.801612830E0,-9.871177673E-1,-1.445174217E0,1.624354482E0,2.387772495E0
5.806384236E0,-8.321838379E-1,-1.354321718E0,1.785638213E0,2.390652857E0
5.811154965E0,-6.724557877E-1,-1.280136824E0,1.925405741E0,2.407931548E0
5.815926423E0,-4.936618805E-1,-1.254048586E0,2.124575615E0,2.515981210E0
5.820698767E0,-3.150520325E-1,-1.214188814E0,2.270517826E0,2.593986017E0
5.825470173E0,-2.107906342E-1,-1.177498817E0,2.375024796E0,2.659262856E0
5.830240903E0,-1.401405334E-1,-1.191799641E0,2.438099384E0,2.717416854E0
5.835012465E0,-1.460180283E-1,-1.213710546E0,2.416656494E0,2.708254635E0
5.839784705E0,-1.828193665E-1,-1.269165754E0,2.370845795E0,2.695387619E0
5.844556163E0,-2.145204544E-1,-1.331416368E0,2.334169865E0,2.695744337E0
5.849326840E0,-2.482452393E-1,-1.412174225E0,2.285159111E0,2.697742371E0
5.854098403E0,-2.337255478E-1,-1.449074984E0,2.285943031E0,2.716612133E0
5.858870642E0,-1.973314285E-1,-1.463694096E0,2.286272287E0,2.721834137E0
5.863642101E0,-1.462478638E-1,-1.465564251E0,2.259783745E0,2.697385694E0
5.868412778E0,-9.246921539E-2,-1.464321852E0,2.285406828E0,2.715855926E0
5.873184340E0,-3.120803833E-2,-1.457540035E0,2.310447454E0,2.731952477E0
5.877956580E0,6.377410889E-2,-1.447789669E0,2.349169731E0,2.760210225E0
5.882728038E0,1.613283157E-1,-1.449487925E0,2.399113655E0,2.807630389E0
5.887498767E0,2.876911163E-1,-1.465185642E0,2.443559885E0,2.863655017E0
5.892270226E0,3.926401138E-1,-1.506723642E0,2.508850574E0,2.952746789E0
5.897042569E0,5.216197968E-1,-1.552556992E0,2.525707483E0,3.010268878E0
5.901813976E0,6.912937164E-1,-1.672133207E0,2.551796436E0,3.128191413E0
5.906584705E0,8.777732849E-1,-1.848355055E0,2.601606369E0,3.309872814E0
5.911356163E0,1.114490509E0,-2.033387184E0,2.672996044E0,3.538595821E0
5.916128507E0,1.398941994E0,-2.136539459E0,2.796768665E0,3.787314950E0
5.920899913E0,1.656863213E0,-2.208419323E0,3.065632105E0,4.125580179E0
5.925670642E0,2.074796677E0,-2.667462111E0,3.078106880E0,4.571091481E0
5.930442205E0,2.365532875E0,-2.946719408E0,3.035648584E0,4.847067503E0
5.935214444E0,2.572152138E0,-3.010956049E0,3.274650097E0,5.138594770E0
5.939985851E0,2.713780403E0,-2.944491148E0,3.624100685E0,5.400809011E0
5.944756580E0,2.921949387E0,-2.981946945E0,3.768006325E0,5.623848101E0
5.949528142E0,2.940692902E0,-2.939148188E0,3.928751230E0,5.720258127E0
5.954300382E0,2.868227959E0,-2.790019512E0,4.112841606E0,5.738153586E0
5.959071840E0,2.769173622E0,-2.611331224E0,4.302946568E0,5.744799603E0
5.963842517E0,2.636386871E0,-2.479587078E0,4.472181320E0,5.753198552E0
5.968614080E0,2.405421257E0,-2.317936659E0,4.560004711E0,5.652656433E0
5.973386319E0,2.107531548E0,-2.126248598E0,4.611591816E0,5.498127081E0
5.978157778E0,1.776309013E0,-1.902055025E0,4.671913624E0,5.347884062E0
5.982928507E0,1.428558350E0,-1.645337820E0,4.690234661E0,5.171674456E0
5.987699965E0,1.052440643E0,-1.410909653E0,4.673394680E0,4.993887783E0
5.992472257E0,6.025762558E-1,-1.155760288E0,4.576068878E0,4.758075910E0
5.997243715E0,1.508455276E-1,-8.655211926E-1,4.370283604E0,4.457719157E0
6.002014444E0,-2.763557434E-1,-5.496520996E-1,4.145212650E0,4.190617836E0
6.006785903E0,-6.622867584E-1,-2.775542736E-1,3.825267315E0,3.892085579E0
6.011558246E0,-1.028420448E0,-7.284164429E-2,3.495271444E0,3.644156554E0
6.016329653E0,-1.303037643E0,1.362574100E-1,3.153595448E0,3.414913971E0
6.021100382E0,-1.567600250E0,2.802259922E-1,2.844214916E0,3.259671094E0
6.025871840E0,-1.824520111E0,4.093427658E-1,2.508040905E0,3.128370873E0
6.030644184E0,-2.054723740E0,5.187849998E-1,2.172379971E0,3.034841389E0
6.035415590E0,-2.265471935E0,6.061758995E-1,1.814336777E0,2.965068338E0
6.040186319E0,-2.471198559E0,6.954557896E-1,1.456446528E0,2.951561885E0
6.044957882E0,-2.578772068E0,7.458603382E-1,1.109256983E0,2.904621159E0
6.049730121E0,-2.669737816E0,7.764344215E-1,7.688434124E-1,2.884695930E0
6.054501580E0,-2.736948013E0,7.061715126E-1,5.195841193E-1,2.873939855E0
6.059272257E0,-2.749395370E0,5.878422260E-1,2.612355947E-1,2.823646122E0
6.064043819E0,-2.733499527E0,3.832945824E-1,6.352645159E-2,2.760972657E0
6.068816059E0,-2.682085991E0,1.382813454E-1,-1.190320849E-1,2.688284886E0
6.073587517E0,-2.633400440E0,-1.349749565E-1,-2.628068626E-1,2.649921426E0
6.078358246E0,-2.553875446E0,-3.811335564E-1,-3.177506626E-1,2.601635652E0
6.083129705E0,-2.488887787E0,-6.119399071E-1,-3.465394080E-1,2.586333781E0
6.087902048E0,-2.428792953E0,-8.607358932E-1,-3.326875269E-1,2.598188307E0
6.092673455E0,-2.327996254E0,-1.081707954E0,-2.889088988E-1,2.583239634E0
6.097444184E0,-2.286879063E0,-1.281888962E0,-2.253778875E-1,2.631321027E0
6.102215642E0,-2.231122971E0,-1.463461399E0,-1.523188353E-1,2.672607342E0
6.106987986E0,-2.177330971E0,-1.604560137E0,-6.313669682E-2,2.705433354E0
6.111759392E0,-2.101493359E0,-1.743281126E0,4.172480106E-2,2.730758938E0
6.116530121E0,-2.020275116E0,-1.848293304E0,8.063089848E-2,2.739379679E0
6.121301684E0,-1.924030781E0,-1.948144913E0,1.847877502E-1,2.744323151E0
6.126073923E0,-1.786426067E0,-2.047547817E0,2.892072797E-1,2.732656401E0
6.130845330E0,-1.650494099E0,-2.129704952E0,3.789717853E-1,2.720917780E0
6.135616059E0,-1.511364937E0,-2.213610411E0,4.606583118E-1,2.719650916E0
6.140387621E0,-1.402489662E0,-2.258609772E0,5.052989721E-1,2.706219209E0
6.145159861E0,-1.266410828E0,-2.271882534E0,5.126556158E-1,2.651049304E0
6.149931319E0,-1.124706268E0,-2.241636992E0,4.876183569E-1,2.554930968E0
6.154701996E0,-9.606409073E-1,-2.184691191E0,4.088652432E-1,2.421337923E0
6.159473559E0,-8.125638962E-1,-2.118038893E0,3.198267519E-1,2.290990613E0
6.164245798E0,-6.279640198E-1,-1.982315779E0,2.446586788E-1,2.093746051E0
6.169017257E0,-4.763240814E-1,-1.835347652E0,1.643387675E-1,1.903258486E0
6.173787986E0,-3.362369537E-1,-1.668089390E0,1.029745340E-1,1.704752550E0
6.178559444E0,-1.957950592E-1,-1.485578060E0,3.245860338E-3,1.498428648E0
6.183331788E0,-5.271339417E-2,-1.297729492E0,-3.901261091E-2,1.299385440E0
6.188103194E0,4.746150970E-2,-1.107283831E0,-8.816057444E-2,1.111801405E0
6.192873923E0,1.118440628E-1,-9.193620682E-1,-1.203120649E-1,9.339222129E-1
6.197645382E0,1.523857117E-1,-6.910700798E-1,-1.258016527E-1,7.187665241E-1
6.202417726E0,1.738185883E-1,-4.752752781E-1,-1.260957420E-1,5.215358355E-1
6.207189132E0,1.379032135E-1,-2.528433800E-1,-1.044013500E-1,3.063441088E-1
6.211959861E0,-1.269054413E-2,1.920819283E-2,-3.694872558E-2,4.353404305E-2
6.216731423E0,1.332778931E-1,2.088813782E-1,2.888272703E-2,2.494566873E-1
6.221503663E0,3.695888519E-1,3.587875366E-1,-1.358837783E-1,5.327183281E-1
6.226275069E0,3.899736404E-1,4.974021912E-1,-1.730328798E-2,6.322877381E-1
6.231045798E0,3.644094467E-1,6.484947205E-1,1.850974262E-1,7.665511754E-1
6.235817361E0,4.028749466E-1,7.688503265E-1,3.775953650E-1,9.465819071E-1
6.240589601E0,4.478416443E-1,8.751289845E-1,5.431364775E-1,1.123125154E0
6.245361059E0,4.896535873E-1,9.719519615E-1,7.148645520E-1,1.302106977E0
6.250131736E0,4.732971191E-1,1.033016920E0,8.709183335E-1,1.431653891E0
6.254903298E0,4.155178070E-1,1.055867195E0,1.056609392E0,1.550462508E0
6.259675538E0,3.857898712E-1,1.024066210E0,1.230816722E0,1.646953317E0
6.264446996E0,3.362741470E-1,9.592866898E-1,1.407371283E0,1.736089048E0
6.269217726E0,2.909698486E-1,8.785040379E-1,1.562048674E0,1.815607021E0
6.273989184E0,2.044420242E-1,7.363440990E-1,1.713714838E0,1.876384214E0
6.278761528E0,8.874416351E-2,6.549682617E-1,1.862186670E0,1.976005604E0
6.283532934E0,-4.160690308E-2,5.916132927E-1,1.985953808E0,2.072619104E0
6.288303663E0,-1.864509583E-1,5.274860859E-1,2.080343962E0,2.154260089E0
6.293075121E0,-3.528223038E-1,4.557199478E-1,2.128760099E0,2.205398787E0
6.297847465E0,-4.831361771E-1,3.719558716E-1,2.122046232E0,2.207906689E0
6.302618871E0,-6.061124802E-1,2.858066559E-1,2.077329159E0,2.182740071E0
6.307389601E0,-7.049388885E-1,1.926901340E-1,2.047595978E0,2.174101564E0
6.312161163E0,-7.437372208E-1,1.070570946E-1,1.980532408E0,2.118281118E0
6.316933403E0,-7.823801041E-1,4.555749893E-2,1.964465499E0,2.115022177E0
6.321704861E0,-8.208665848E-1,-2.056074142E-2,1.982550621E0,2.145868509E0
6.326475538E0,-8.663778305E-1,-7.935833931E-2,1.946606398E0,2.132178407E0
6.331247101E0,-9.284496307E-1,-1.188623905E-1,1.902268529E0,2.120087862E0
6.336019340E0,-1.038114548E0,-1.246671677E-1,1.809347391E0,2.089727661E0
6.340790798E0,-1.173743248E0,-1.205840111E-1,1.656487942E0,2.033756627E0
6.345561476E0,-1.287475586E0,-1.185433865E-1,1.530278206E0,2.003346527E0
6.350333038E0,-1.388918400E0,-1.018078327E-1,1.414352179E0,1.984905852E0
6.355105278E0,-1.480469704E0,-1.038239002E-1,1.296947122E0,1.970949462E0
6.359876736E0,-1.526288509E0,-1.102380753E-1,1.209246635E0,1.950381110E0
6.364647413E0,-1.569520950E0,-1.235315800E-1,1.141761303E0,1.944807172E0
6.369418976E0,-1.622129440E0,-1.436889172E-1,1.077754855E0,1.952820000E0
6.374191267E0,-1.660144806E0,-1.395075321E-1,1.031503201E0,1.959474925E0
6.378962673E0,-1.702723503E0,-1.588361263E-1,1.010270834E0,1.986238506E0
6.383733403E0,-1.718753815E0,-1.752870083E-1,9.781443477E-1,1.985347973E0
6.388504861E0,-1.732107162E0,-2.269425392E-1,9.566740990E-1,1.991713702E0
6.393277205E0,-1.761904716E0,-2.731063366E-1,9.480047226E-1,2.019308856E0
6.398048611E0,-1.810436726E0,-3.016622066E-1,9.591563940E-1,2.070908548E0
6.402819340E0,-1.858478069E0,-3.100917339E-1,9.756429791E-1,2.121786238E0
6.407590798E0,-1.913155079E0,-3.198800087E-1,1.004329443E0,2.184299248E0
6.412363142E0,-1.962389469E0,-3.403348923E-1,1.035616636E0,2.244838989E0
6.417134548E0,-2.018111229E0,-3.666214943E-1,1.035946369E0,2.297905379E0
6.421905278E0,-2.034839153E0,-3.556418419E-1,1.062598586E0,2.322965186E0
6.426676840E0,-2.043682098E0,-3.432869911E-1,1.091565132E0,2.342220510E0
6.431449080E0,-2.020774364E0,-3.009781837E-1,1.122802973E0,2.331266483E0
6.436220538E0,-1.990106583E0,-3.054075241E-1,1.110723734E0,2.299457584E0
6.440991215E0,-1.961196899E0,-2.799215317E-1,1.138963938E0,2.285145114E0
6.445762778E0,-1.926886559E0,-3.106937408E-1,1.123845339E0,2.252210193E0
6.450535017E0,-1.865643024E0,-3.306784630E-1,1.098998189E0,2.190381054E0
6.455306476E0,-1.787118435E0,-3.400120735E-1,1.066996813E0,2.109000405E0
6.460077153E0,-1.720010757E0,-3.578677177E-1,1.061082482E0,2.052413785E0
6.464848715E0,-1.657136440E0,-3.699340820E-1,1.033349514E0,1.987652793E0
6.469621007E0,-1.579440594E0,-3.978943825E-1,9.792872667E-1,1.900514688E0
6.474392413E0,-1.506046295E0,-3.771400452E-1,8.893836141E-1,1.789249359E0
6.479163142E0,-1.434632301E0,-3.724427223E-1,7.949891090E-1,1.681930767E0
6.483934601E0,-1.367668152E0,-3.217458725E-1,7.179286480E-1,1.577801674E0
6.488706944E0,-1.283626080E0,-2.681574821E-1,6.438300014E-1,1.460863244E0
6.493478351E0,-1.187457085E0,-1.975898743E-1,5.921034217E-1,1.341522474E0
6.498249080E0,-1.076819420E0,-1.579971313E-1,5.720770359E-1,1.229542716E0
6.503020538E0,-9.709916115E-1,-9.696722031E-2,5.719116926E-1,1.131066017E0
6.507792882E0,-8.771338463E-1,-4.322242737E-2,5.555914640E-1,1.039189029E0
6.512564340E0,-7.786254883E-1,7.815361023E-3,5.257555842E-1,9.395411993E-1
6.517335017E0,-6.706733704E-1,3.463649750E-2,5.228260159E-1,8.510872456E-1
6.522106580E0,-5.509109497E-1,6.116867065E-2,5.157287121E-1,7.571133239E-1
6.526878819E0,-4.194202423E-1,7.773113251E-2,5.283328891E-1,6.790368991E-1
6.531650278E0,-3.121452332E-1,6.269836426E-2,5.462332964E-1,6.322472187E-1
6.536420955E0,-1.931161880E-1,1.624202728E-2,5.836284757E-1,6.149633023E-1
6.541192517E0,-8.143615723E-2,-4.191398621E-3,6.138646007E-1,6.192569446E-1
6.545964757E0,1.099681854E-2,-1.527595520E-2,6.201938391E-1,6.204793976E-1
6.550736215E0,1.319894791E-1,-2.665758133E-2,6.050199866E-1,6.198233889E-1
6.555506944E0,2.575407028E-1,-2.165555954E-2,5.685614347E-1,6.245464610E-1
6.560278403E0,3.971729279E-1,-3.144407272E-2,5.657418966E-1,6.919530027E-1
6.565050746E0,5.197572708E-1,-8.208751678E-3,5.774476528E-1,7.769561094E-1
6.569822153E0,6.300678253E-1,-2.137899399E-2,5.869060159E-1,8.613368664E-1
6.574592882E0,7.401781082E-1,-3.246116638E-2,5.893349051E-1,9.466958274E-1
6.579364340E0,8.548746109E-1,-5.816984177E-2,5.776488185E-1,1.033379160E0
6.584136684E0,9.623117447E-1,-1.125984192E-1,5.783863068E-1,1.128385137E0
6.588908090E0,1.079223633E0,-1.789426804E-1,5.368331075E-1,1.218578647E0
6.593678819E0,1.241513252E0,-2.618308067E-1,5.131563544E-1,1.368663571E0
6.598450278E0,1.456437111E0,-4.039993286E-1,4.694184661E-1,1.582649112E0
6.603222621E0,1.704784393E0,-5.790514946E-1,4.514094591E-1,1.856168355E0
6.607994080E0,1.938753128E0,-7.581496239E-1,4.998550415E-1,2.140889910E0
6.612764757E0,2.132205963E0,-9.315619469E-1,5.736622810E-1,2.396497098E0
6.617536319E0,2.302049637E0,-1.053731918E0,6.820970178E-1,2.622029715E0
6.622308559E0,2.414898872E0,-1.105539799E0,7.987624407E-1,2.773441228E0
6.627080017E0,2.525873184E0,-1.110962391E0,9.377378821E-1,2.914382458E0
6.631850694E0,2.589576721E0,-1.031840801E0,1.117722750E0,3.003316031E0
6.636622257E0,2.644308090E0,-9.233198166E-1,1.333924294E0,3.102295727E0
6.641394496E0,2.704442024E0,-7.520108223E-1,1.562080860E0,3.212417089E0
6.646165955E0,2.719683647E0,-5.564174652E-1,1.804280758E0,3.310847111E0
6.650936684E0,2.737807274E0,-3.271818161E-1,2.050935745E0,3.436418781E0
6.655708142E0,2.782502174E0,-4.078483582E-2,2.227790356E0,3.564692360E0
6.660480486E0,2.798535347E0,2.569956779E-1,2.351861715E0,3.664573699E0
6.665251892E0,2.850114822E0,5.727276802E-1,2.480371714E0,3.821441526E0
6.670022621E0,2.874632835E0,9.464993477E-1,2.606149435E0,3.993919107E0
6.674794080E0,2.893195152E0,1.308269978E0,2.647792578E0,4.134362594E0
6.679566423E0,2.843276024E0,1.638480663E0,2.734680176E0,4.271687383E0
6.684337830E0,2.793973923E0,1.989361286E0,2.775845766E0,4.412388052E0
6.689108559E0,2.692343712E0,2.305451155E0,2.838193655E0,4.540832844E0
6.693880121E0,2.557407379E0,2.591387749E0,2.883371115E0,4.644292406E0
6.698652361E0,2.405765533E0,2.844613075E0,2.925697327E0,4.737007093E0
6.703423819E0,2.234947205E0,3.093750238E0,3.003331184E0,4.856570575E0
6.708194496E0,2.056874275E0,3.295700788E0,3.082610846E0,4.959321032E0
6.712966059E0,1.831009865E0,3.450679302E0,3.132398605E0,5.007165445E0
6.717738298E0,1.610056877E0,3.563617229E0,3.155291557E0,5.024690609E0
6.722509757E0,1.377465248E0,3.668310165E0,3.187237740E0,5.050979547E0
6.727280434E0,1.173922539E0,3.716984034E0,3.194827795E0,5.039939392E0
6.732051996E0,9.756422043E-1,3.736244440E0,3.197443724E0,5.013486471E0
6.736824236E0,8.186473846E-1,3.707217932E0,3.204743624E0,4.968302530E0
6.741595694E0,6.838626862E-1,3.630096436E0,3.197689533E0,4.885743204E0
6.746366423E0,5.499458313E-1,3.541080475E0,3.200344563E0,4.804570393E0
6.751137882E0,4.217319489E-1,3.392415524E0,3.198415518E0,4.681474420E0
6.755910226E0,3.472290039E-1,3.205968618E0,3.213683128E0,4.552643409E0
6.760681632E0,2.619752884E-1,3.022629023E0,3.224561930E0,4.427495556E0
6.765452361E0,1.996536255E-1,2.773291588E0,3.257279158E0,4.282624816E0
6.770223819E0,1.318321228E-1,2.522972584E0,3.292557716E0,4.150145381E0
6.774996163E0,7.782649994E-2,2.221694946E0,3.292098999E0,3.972392380E0
6.779767569E0,2.840614319E-2,1.893913746E0,3.282090187E0,3.789436921E0
6.784538298E0,-1.856899261E-2,1.554377079E0,3.267288208E0,3.618232323E0
6.789309861E0,-4.614925385E-2,1.212982178E0,3.204652071E0,3.426842630E0
6.794082101E0,-9.705257416E-2,8.822102547E-1,3.175447702E0,3.297147592E0
6.798853559E0,-1.352424622E-1,5.742392540E-1,3.141441584E0,3.196356749E0
6.803624236E0,-1.653423309E-1,3.132419586E-1,3.095488071E0,3.115686924E0
6.808395798E0,-2.040023804E-1,8.020687103E-2,3.063929081E0,3.071760330E0
6.813168038E0,-2.558822632E-1,-1.294813156E-1,3.010888100E0,3.024514555E0
6.817939496E0,-2.681760788E-1,-3.107833862E-1,2.981573105E0,3.009698141E0
6.822710173E0,-2.910871506E-1,-4.732084274E-1,2.944669485E0,2.996620817E0
6.827481736E0,-2.934494019E-1,-6.309847832E-1,2.907391787E0,2.989511891E0
6.832253976E0,-2.656869888E-1,-7.242336273E-1,2.841240644E0,2.944104673E0
6.837025434E0,-2.485008240E-1,-8.486752510E-1,2.770198345E0,2.907920428E0
6.841796163E0,-1.868743896E-1,-9.229059219E-1,2.663480282E0,2.825031786E0
6.846567621E0,-1.789693832E-1,-9.829306602E-1,2.569134712E0,2.756562332E0
6.851339965E0,-1.887187958E-1,-1.047646046E0,2.449112892E0,2.670455201E0
6.856111371E0,-2.209310532E-1,-1.097935677E0,2.349289179E0,2.602581973E0
6.860882101E0,-1.823415756E-1,-1.162497997E0,2.272352934E0,2.558952501E0
6.865653559E0,-1.902112961E-1,-1.152841568E0,2.225634813E0,2.513697345E0
6.870425903E0,-1.920032501E-1,-1.145775318E0,2.213938475E0,2.500237968E0
6.875197309E0,-1.901569366E-1,-1.064850330E0,2.239722729E0,2.487252257E0
6.879968038E0,-2.038726807E-1,-9.629011154E-1,2.319591284E0,2.519771091E0
6.884739601E0,-2.307777405E-1,-8.352513313E-1,2.431985378E0,2.581754448E0
6.889511840E0,-1.992759705E-1,-6.845989227E-1,2.576822281E0,2.673649129E0
6.894283298E0,-1.884765625E-1,-5.470824242E-1,2.713239670E0,2.774255233E0
6.899053976E0,-1.292228699E-1,-4.063291550E-1,2.860141039E0,2.891748380E0
6.903825538E0,-4.810810089E-2,-2.651100159E-1,3.029484034E0,3.041442293E0
6.908597778E0,5.711746216E-2,-1.260461807E-1,3.208916426E0,3.211898920E0
6.913369236E0,1.431541443E-1,9.164810181E-4,3.431640148E0,3.434624878E0
6.918139913E0,2.122850418E-1,1.251354218E-1,3.637679100E0,3.646016051E0
6.922911476E0,3.122663498E-1,2.799239159E-1,3.841033459E0,3.863858913E0
6.927683715E0,3.855133057E-1,3.932490349E-1,4.043787003E0,4.081112426E0
6.932455173E0,4.439506531E-1,5.319976807E-1,4.197734833E0,4.254537747E0
6.937225903E0,5.089941025E-1,6.457118988E-1,4.376572609E0,4.453134475E0
6.941997361E0,5.757675171E-1,7.342681885E-1,4.572499275E0,4.666734150E0
6.946769705E0,6.250343323E-1,8.477587700E-1,4.720656395E0,4.836730264E0
6.951541111E0,6.639595032E-1,9.144101143E-1,4.773453236E0,4.905389268E0
6.956311840E0,6.757364273E-1,9.580893517E-1,4.790789604E0,4.932161793E0
6.961083298E0,6.556739807E-1,1.014789104E0,4.837275505E0,4.985874006E0
6.965855642E0,6.372995377E-1,1.091716290E0,4.829399586E0,4.992103316E0
6.970627048E0,6.325922012E-1,1.126713276E0,4.798235893E0,4.969177335E0
6.975397778E0,6.535129547E-1,1.160530090E0,4.774955750E0,4.957228226E0
6.980169340E0,6.569805145E-1,1.197948933E0,4.731011391E0,4.924345014E0
6.984941580E0,6.693143845E-1,1.238950729E0,4.678311348E0,4.885650184E0
6.989712986E0,6.881275177E-1,1.266841888E0,4.619530201E0,4.839263077E0
6.994483715E0,7.062091827E-1,1.262452602E0,4.554606915E0,4.778803420E0
6.999255278E0,7.237224579E-1,1.218883038E0,4.478747845E0,4.697726292E0
7.004027517E0,7.860889435E-1,1.174432278E0,4.394515991E0,4.616167003E0
7.008798976E0,8.477907181E-1,1.145789146E0,4.301953316E0,4.531929413E0
7.013569653E0,9.374942780E-1,1.116137505E0,4.210568428E0,4.455731695E0
7.018341215E0,1.031124115E0,1.109182358E0,4.158552170E0,4.425726900E0
7.023113455E0,1.126230240E0,1.084128380E0,4.097808838E0,4.385859798E0
7.027884913E0,1.189379692E0,1.033852100E0,3.997044563E0,4.296491529E0
7.032655642E0,1.203781128E0,1.013234615E0,3.875622749E0,4.182844138E0
7.037427101E0,1.195935249E0,9.602370262E-1,3.743002892E0,4.045044736E0
7.042199444E0,1.216116905E0,9.155845642E-1,3.582607031E0,3.892596635E0
7.046970851E0,1.161512375E0,8.554000854E-1,3.418487310E0,3.710374077E0
7.051741580E0,1.125625610E0,8.420934677E-1,3.265106440E0,3.554866310E0
7.056513038E0,1.084527016E0,8.253817558E-1,3.101019621E0,3.387296353E0
7.061285382E0,1.059785843E0,8.005313873E-1,2.938238144E0,3.224475140E0
7.066056788E0,9.917135239E-1,7.892079353E-1,2.769559622E0,3.045784854E0
7.070827517E0,9.090919495E-1,7.651338577E-1,2.614224911E0,2.871593613E0
7.075599080E0,8.335189819E-1,7.356019020E-1,2.398381948E0,2.643501470E0
7.080371319E0,7.483882904E-1,7.128033638E-1,2.184465408E0,2.416622186E0
7.085142778E0,6.656417847E-1,7.062792778E-1,1.958389997E0,2.185680852E0
7.089913455E0,5.782623291E-1,7.162294388E-1,1.787019134E0,2.010176439E0
7.094685017E0,4.742717743E-1,7.306504250E-1,1.596320868E0,1.818522497E0
7.099457257E0,3.944272995E-1,7.592439651E-1,1.391172409E0,1.633213080E0
7.104228715E0,3.028182983E-1,7.876529694E-1,1.174170256E0,1.445950176E0
7.108999392E0,2.426204681E-1,7.825922966E-1,1.002700925E0,1.294883987E0
7.113770955E0,1.850423813E-1,7.990708351E-1,7.766376734E-1,1.129566713E0
7.118543194E0,1.300716400E-1,7.940578461E-1,5.799561739E-1,9.918647378E-1
7.123314653E0,8.971881866E-2,7.629342079E-1,4.295070171E-1,8.801104191E-1
7.128085382E0,9.024810791E-2,7.584018707E-1,2.610641718E-1,8.071385385E-1
7.132856840E0,9.805870056E-2,7.708301544E-1,6.062066555E-2,7.794032979E-1
7.137629184E0,8.194351196E-2,7.905807495E-1,-1.258364916E-1,8.047157779E-1
7.142400590E0,9.449100494E-2,8.081221581E-1,-3.003298044E-1,8.672877053E-1
7.147171319E0,1.068410873E-1,7.826962471E-1,-4.649388790E-1,9.166223837E-1
7.151942778E0,1.190242767E-1,7.527527809E-1,-5.979032516E-1,9.686546474E-1
7.156715121E0,1.286697388E-1,7.255759239E-1,-6.847286820E-1,1.005917338E0
7.161486528E0,1.765098572E-1,6.702485085E-1,-7.732819319E-1,1.038438125E0
7.166257257E0,2.434024811E-1,6.035957336E-1,-7.991200686E-1,1.030614119E0
7.171028819E0,3.148946762E-1,5.852990150E-1,-8.077014685E-1,1.045999644E0
7.175801059E0,3.599014282E-1,5.914020538E-1,-8.253582120E-1,1.077265801E0
7.180572517E0,4.715785980E-1,5.833911896E-1,-8.138529062E-1,1.106837028E0
7.185343194E0,5.661144257E-1,6.018495560E-1,-7.636878490E-1,1.125134464E0
7.190114757E0,6.243619919E-1,6.106543541E-1,-6.611628532E-1,1.095382561E0
7.194886996E0,6.871061325E-1,5.811662674E-1,-5.402613878E-1,1.049643480E0
7.199658455E0,7.448835373E-1,5.374207497E-1,-4.659729004E-1,1.029953052E0
7.204429132E0,7.953138351E-1,5.295958519E-1,-4.312580824E-1,1.048322182E0
7.209200694E0,8.454513550E-1,5.598111153E-1,-4.025610685E-1,1.090977494E0
7.213972934E0,8.641853333E-1,5.944552422E-1,-4.206285477E-1,1.130098093E0
7.218744392E0,8.707122803E-1,6.335082054E-1,-3.852053881E-1,1.143615194E0
7.223515121E0,9.009656906E-1,6.434783936E-1,-3.206400871E-1,1.152655059E0
7.228286580E0,9.071063995E-1,5.789899826E-1,-3.154134750E-1,1.121408525E0
7.233058923E0,9.418735504E-1,5.382652283E-1,-2.861615419E-1,1.121937462E0
7.237830330E0,9.454698563E-1,4.997606277E-1,-2.449431419E-1,1.097119445E0
7.242601059E0,9.944171906E-1,4.465713501E-1,-1.994010210E-1,1.108175206E0
7.247372517E0,1.012246132E0,3.573646545E-1,-1.711198092E-1,1.087029768E0
7.252144861E0,9.869956970E-1,2.368173599E-1,-1.364952326E-1,1.024145457E0
7.256916267E0,9.715156555E-1,1.450586319E-1,-1.412034035E-1,9.923825254E-1
7.261686996E0,9.681673050E-1,7.965326309E-2,-1.755549908E-1,9.871738082E-1
7.266458455E0,9.363813400E-1,-3.816413879E-2,-1.798174381E-1,9.542540681E-1
7.271230798E0,9.195461273E-1,-1.217532158E-1,-1.832298040E-1,9.454956832E-1
7.276002257E0,3.083238602E-1,-1.394896507E-1,3.080567122E-1,4.576241944E-1
7.280772934E0,7.934846878E-1,-2.091217041E-1,-5.807936192E-2,8.226317823E-1
7.285544496E0,1.094026566E0,-3.143281937E-1,-3.300611973E-1,1.185173714E0
7.290316736E0,1.331892967E0,-4.481539726E-1,-5.286576748E-1,1.501419261E0
7.295088194E0,1.478278160E0,-5.941448212E-1,-6.368996501E-1,1.715795894E0
7.299858871E0,1.509438515E0,-7.594547272E-1,-6.098740101E-1,1.796419333E0
7.304630434E0,1.444751740E0,-9.367904663E-1,-5.127887726E-1,1.796618015E0
7.309402673E0,1.449302673E0,-1.076000214E0,-4.605939984E-1,1.862901374E0
7.314174132E0,1.508619308E0,-1.143694878E0,-4.864876568E-1,1.954645858E0
7.318944861E0,1.538881302E0,-1.161667824E0,-5.044858456E-1,1.993021265E0
7.323716319E0,1.136359215E0,-1.189270020E0,-2.428576350E-1,1.662725255E0
7.328488663E0,1.515826225E0,-1.243881226E0,-4.323067069E-1,2.007948888E0
7.333260069E0,1.571641922E0,-1.404324055E0,-5.676913857E-1,2.182763819E0
7.338030798E0,1.297247887E0,-1.553097725E0,-1.838308573E-1,2.031934646E0
7.342802257E0,1.255094528E0,-1.666094303E0,-1.280699968E-1,2.089864691E0
7.347574601E0,1.057611465E0,-1.740972519E0,7.733219862E-2,2.038506216E0
7.352346007E0,8.341999054E-1,-1.689282894E0,3.381242752E-1,1.914130143E0
7.357116736E0,5.897159576E-1,-1.585287571E0,5.174844861E-1,1.768810840E0
7.361888298E0,3.433084488E-1,-1.505594730E0,6.177645326E-1,1.663222535E0
7.366660538E0,1.356325150E-1,-1.431061268E0,7.202178836E-1,1.607807927E0
7.371431996E0,-9.558105469E-2,-1.359476566E0,8.148236275E-1,1.587844393E0
7.376202673E0,-2.810106277E-1,-1.246074200E0,1.037403822E0,1.645562084E0
7.380974236E0,-8.404922485E-2,1.119723320E-1,2.866919518E0,2.870336147E0
7.385746476E0,-1.266927719E-1,-5.881266594E-1,2.012864828E0,2.100849552E0
7.390517934E0,-4.200582504E-1,-1.484208584E0,1.422871947E0,2.098544408E0
7.395288611E0,-8.939943314E-1,-2.251448631E0,7.891421318E-1,2.547742551E0
7.400060173E0,-1.690796852E0,-2.507614613E0,5.543305278E-1,3.074769483E0
7.404832413E0,-2.096930504E0,-2.749512672E0,6.549524665E-1,3.519360767E0
7.409603871E0,-2.038806915E0,-2.570765972E0,2.847523689E-1,3.293426063E0
7.414374601E0,-1.863922596E0,-2.467312813E0,1.784335375E-1,3.097366379E0
7.419146059E0,-1.804859161E0,-2.389609814E0,-5.022823811E-2,2.995041657E0
7.423918403E0,-1.773388386E0,-2.390574455E0,-2.939713001E-1,2.991015165E0
7.428689809E0,-1.800758362E0,-2.448552608E0,-4.364767075E-1,3.070611091E0
7.433460538E0,-1.865355492E0,-2.493850470E0,-4.797403812E-1,3.151030325E0
7.438231996E0,-1.940730572E0,-2.495116234E0,-5.315686464E-1,3.205402533E0
7.443004340E0,-1.943224907E0,-2.469204426E0,-6.230767965E-1,3.203329242E0
7.447775746E0,-2.085665226E0,-2.282345772E0,-5.017174482E-1,3.132223181E0
7.452546476E0,-1.839746475E0,-2.356164455E0,-5.285234451E-1,3.035706683E0
7.457317934E0,-1.521923065E0,-2.294013023E0,-7.960291505E-1,2.865729920E0
7.462090278E0,-1.333303452E0,-2.232712746E0,-7.228784561E-1,2.699121628E0
7.466861736E0,-9.489688873E-1,-2.247148991E0,-8.946949244E-1,2.598210835E0
7.471632413E0,-6.992979050E-1,-2.179860592E0,-9.097709060E-1,2.463431116E0
7.476403976E0,-5.555334091E-1,-2.083965302E0,-8.191008568E-1,2.307044638E0
7.481176215E0,-4.530248642E-1,-1.974165916E0,-7.359321117E-1,2.155031013E0
7.485947673E0,-4.036369324E-1,-1.917557716E0,-6.489733458E-1,2.064247265E0
7.490718351E0,-3.784704208E-1,-1.839866638E0,-6.187460423E-1,1.977674334E0
7.495489913E0,-4.466009140E-1,-1.810073376E0,-4.997353554E-1,1.930169274E0
7.500262153E0,-2.469692230E-1,-1.914269924E0,-7.051426172E-1,2.054908575E0
7.505033611E0,-1.887598038E-1,-2.011079788E0,-8.756662607E-1,2.201559352E0
7.509804340E0,-3.001718521E-1,-2.002046585E0,-7.969450355E-1,2.175641298E0
7.514575798E0,-4.037666321E-1,-2.040079594E0,-6.091465950E-1,2.167028338E0
7.519348142E0,-3.391180038E-1,-2.105881691E0,-4.547557831E-1,2.180949687E0
7.524119548E0,-4.000492096E-1,-2.122618675E0,-1.823461056E-2,2.160065256E0
7.528890278E0,-5.095539093E-1,-2.126124859E0,6.670132875E-1,2.285816884E0
7.533661736E0,-5.290727615E-1,-1.936954975E0,5.170710087E-1,2.073421084E0
7.538434080E0,-6.001939774E-1,-1.720356464E0,-1.149834394E-1,1.825672579E0
7.543205486E0,-7.827377319E-1,-1.495572090E0,-5.369142294E-1,1.771352908E0
7.547976215E0,-9.497194290E-1,-1.286698818E0,-6.378389597E-1,1.721743123E0
7.552747778E0,-1.239541531E0,-8.856449127E-1,-4.413352013E-1,1.586066480E0
7.557520017E0,-1.135963440E0,-7.690272331E-1,-6.305655241E-1,1.509777700E0
7.562291423E0,-9.077901840E-1,-5.543603897E-1,-1.126518607E0,1.549336191E0
7.567062153E0,-7.420558929E-1,-4.667882919E-1,-1.501605749E0,1.738780631E0
7.571833715E0,-5.934543610E-1,-4.153461456E-1,-1.831489325E0,1.969531326E0
7.576605955E0,-5.315151215E-1,-2.998046875E-1,-2.008214474E0,2.098884596E0
7.581377413E0,-5.490446091E-1,-1.252079010E-1,-2.051252842E0,2.127149553E0
7.586148090E0,-5.503091812E-1,8.199071884E-2,-2.094963074E0,2.167586896E0
7.590919653E0,-5.522069931E-1,2.522053719E-1,-2.160769939E0,2.244430182E0
7.595691892E0,-4.975833893E-1,4.569230080E-1,-2.286540031E0,2.384246879E0
7.600463351E0,-4.368295670E-1,5.908126831E-1,-2.371532679E0,2.482749875E0
7.605234080E0,-4.203376770E-1,6.800513268E-1,-2.446672440E0,2.573977388E0
7.610005538E0,-4.002866745E-1,7.366416454E-1,-2.506995201E0,2.643462743E0
7.614777830E0,-3.695030212E-1,7.869160175E-1,-2.547889948E0,2.692120445E0
7.619549288E0,-3.495607376E-1,8.236796856E-1,-2.583655596E0,2.734212349E0
7.624320017E0,-3.284082413E-1,8.422594070E-1,-2.588238955E0,2.741575052E0
7.629091476E0,-3.132228851E-1,8.713741302E-1,-2.580803871E0,2.741888049E0
7.633863819E0,-2.823734283E-1,8.896381855E-1,-2.585436106E0,2.748758031E0
7.638635226E0,-2.811870575E-1,8.828847408E-1,-2.568826675E0,2.730828101E0
7.643405955E0,-2.689018250E-1,8.799302578E-1,-2.521573544E0,2.684197941E0
7.648177413E0,-2.620916367E-1,8.976867199E-1,-2.436981916E0,2.610251776E0
7.652949757E0,-2.845468521E-1,9.457786083E-1,-2.370468855E0,2.567992733E0
7.657721163E0,-2.906808853E-1,9.955451488E-1,-2.284213781E0,2.508632719E0
7.662491892E0,-2.946329117E-1,1.075913668E0,-2.200341940E0,2.466962388E0
7.667263455E0,-3.035850525E-1,1.112632275E0,-2.078487396E0,2.377020050E0
7.672035694E0,-3.340539932E-1,1.184838533E0,-1.936172128E0,2.294383780E0
7.676807153E0,-3.668909073E-1,1.278094053E0,-1.838138580E0,2.268675117E0
7.681577830E0,-4.020814896E-1,1.356469154E0,-1.741532326E0,2.243794316E0
7.686349392E0,-4.228248596E-1,1.484625340E0,-1.658438206E0,2.265681033E0
7.691121632E0,-4.268302917E-1,1.604936600E0,-1.600922585E0,2.306720336E0
7.695893090E0,-4.476203918E-1,1.722146988E0,-1.537915230E0,2.351879571E0
7.700663819E0,-4.660530090E-1,1.821886539E0,-1.457520843E0,2.379252609E0
7.705435278E0,-4.702911377E-1,1.923138857E0,-1.414630055E0,2.433272490E0
7.710207569E0,-4.699563980E-1,1.997115612E0,-1.342335343E0,2.451773635E0
7.714979028E0,-4.770870209E-1,2.055728674E0,-1.261974335E0,2.458904558E0
7.719749757E0,-5.228776932E-1,2.101190805E0,-1.187820554E0,2.469680455E0
7.724521215E0,-5.403862000E-1,2.143013000E0,-1.117324710E0,2.476476625E0
7.729293559E0,-6.133909225E-1,2.166729212E0,-1.026654005E0,2.474870168E0
7.734064965E0,-6.629695892E-1,2.179477930E0,-9.419578314E-1,2.465144474E0
7.738835694E0,-6.915798187E-1,2.154932976E0,-8.487149477E-1,2.417092435E0
7.743607153E0,-6.992607117E-1,2.093098640E0,-7.876224518E-1,2.343155263E0
7.748379496E0,-7.290496826E-1,2.015619278E0,-6.963492632E-1,2.253694036E0
7.753150955E0,-7.760276794E-1,1.867766619E0,-6.105653048E-1,2.112714153E0
7.757921632E0,-8.591976166E-1,1.743067503E0,-5.350426435E-1,2.015632778E0
7.762693194E0,-9.305362701E-1,1.591585875E0,-4.816384315E-1,1.905523268E0
7.767465434E0,-9.947681427E-1,1.466092110E0,-3.953191042E-1,1.815287009E0
7.772236892E0,-1.046992779E0,1.352443695E0,-3.454420567E-1,1.744886255E0
7.777007569E0,-1.072805882E0,1.253111839E0,-3.010118008E-1,1.676845206E0
7.781779132E0,-1.091242313E0,1.134845734E0,-2.596048117E-1,1.595643846E0
7.786551371E0,-1.142862797E0,1.016911268E0,-2.023185492E-1,1.543106184E0
7.791322830E0,-1.213164330E0,9.257740974E-1,-1.436864138E-1,1.532798472E0
7.796093507E0,-1.304485321E0,9.164736271E-1,-1.099309921E-1,1.598027123E0
7.800865069E0,-1.397665977E0,9.554252625E-1,-8.194077015E-2,1.694999087E0
7.805637309E0,-1.442506313E0,1.009099483E0,-1.097850800E-1,1.763847781E0
7.810408767E0,-1.470202923E0,1.086975574E0,-1.263304949E-1,1.832749827E0
7.815179496E0,-1.464173317E0,1.162560940E0,-1.862725019E-1,1.878842432E0
7.819950955E0,-1.395885468E0,1.240450859E0,-2.392166853E-1,1.882668105E0
7.824723298E0,-1.308626175E0,1.291712523E0,-2.466262579E-1,1.855221878E0
7.829494705E0,-1.233557224E0,1.335333109E0,-2.565747499E-1,1.835921714E0
7.834265434E0,-1.189842224E0,1.340113640E0,-2.691053152E-1,1.812193907E0
7.839036892E0,-1.163099766E0,1.353950500E0,-2.697650194E-1,1.805202534E0
7.843809236E0,-1.139037609E0,1.345616579E0,-3.110921383E-1,1.790214784E0
7.848580642E0,-1.074569702E0,1.310449600E0,-3.571329117E-1,1.731912849E0
7.853351371E0,-1.020006180E0,1.284302235E0,-4.077496529E-1,1.690001366E0
7.858122934E0,-9.323315620E-1,1.262329340E0,-4.532964230E-1,1.633461096E0
7.862895173E0,-8.761758804E-1,1.208620787E0,-4.745950699E-1,1.566425504E0
7.867666632E0,-7.917709351E-1,1.135079622E0,-4.644674063E-1,1.459807156E0
7.872437309E0,-7.101030350E-1,1.020381451E0,-4.996938705E-1,1.339820357E0
7.877208871E0,-6.407279968E-1,8.861260414E-1,-5.299557447E-1,1.215156294E0
7.881981111E0,-5.476922989E-1,7.085676193E-1,-5.743861198E-1,1.063933428E0
