"Time (s)","Linear Acceleration x (m/s^2)","Linear Acceleration y (m/s^2)","Linear Acceleration z (m/s^2)","Absolute acceleration (m/s^2)"
1.047705790E-1,1.413808465E0,-1.814389229E-2,-3.046913147E-1,1.446381822E0
1.095412040E-1,1.411352873E0,7.587790489E-2,-2.845191956E-1,1.441743930E0
1.143125580E-1,1.408356428E0,1.283597946E-1,-3.328304291E-1,1.452831773E0
1.190847980E-1,1.361607552E0,1.491298676E-1,-4.189548492E-1,1.432388916E0
1.238561000E-1,1.266156435E0,1.467838287E-1,-4.667081833E-1,1.357392404E0
1.286267250E-1,1.139252067E0,1.249270439E-1,-5.238399506E-1,1.260123141E0
1.333981830E-1,1.078765869E0,1.501071453E-1,-6.856679916E-1,1.287015365E0
1.381703180E-1,9.256065488E-1,8.562660217E-2,-9.115076065E-1,1.301893050E0
1.429416730E-1,7.248719931E-1,1.070237160E-2,-9.617271423E-1,1.204355862E0
1.477122980E-1,7.187836170E-1,3.316020966E-2,-8.120222092E-1,1.084956016E0
1.524836520E-1,8.278086185E-1,9.392237663E-2,-7.109575272E-1,1.095239301E0
1.572558910E-1,1.023691416E0,1.431190968E-1,-7.112503052E-1,1.254712791E0
1.620271930E-1,1.464054227E0,2.662377357E-1,-9.746599197E-1,1.778847737E0
1.667978180E-1,1.290862203E0,1.770334244E-1,-9.617033005E-1,1.619425607E0
1.715692770E-1,1.066251159E0,-7.770252228E-2,-1.000800133E0,1.464421429E0
1.763414120E-1,7.599846125E-1,-5.063633919E-1,-1.148153305E0,1.467050274E0
1.811127660E-1,6.792194843E-1,-6.109969616E-1,-8.104267120E-1,1.221248480E0
1.858833910E-1,6.353999376E-1,-5.644834042E-1,-4.658403397E-1,9.692171152E-1
1.906547450E-1,1.360688329E0,-2.204818726E-1,-8.629684448E-1,1.626283961E0
1.954269850E-1,1.359077215E0,9.886240959E-2,-7.401103973E-1,1.550686317E0
2.001982870E-1,1.307961464E0,2.731564045E-1,-8.113718033E-1,1.563234408E0
2.049689120E-1,1.237079978E0,1.485900879E-1,-1.045572281E0,1.626550731E0
2.097403700E-1,1.289162159E0,-2.462596893E-1,-1.720547676E0,2.163993349E0
2.145125060E-1,1.044499874E0,-3.008637428E-1,-1.826082230E0,2.125105947E0
2.192838600E-1,7.467437983E-1,-3.665575981E-1,-1.834337711E0,2.014146373E0
2.240544850E-1,3.982504010E-1,-3.472068310E-1,-1.675781250E0,1.757099531E0
2.288258390E-1,1.815456748E-1,-2.536010742E-1,-1.343304157E0,1.379035313E0
2.335980790E-1,3.457522392E-2,-1.457073689E-1,-6.357173920E-1,6.531176662E-1
2.383693810E-1,1.548039913E-2,2.254819870E-2,-1.454896927E-1,1.480382204E-1
2.431400060E-1,2.084392905E-1,1.132073402E-1,-1.261062622E-1,2.686366116E-1
2.479114640E-1,1.667484641E-1,8.938121796E-2,-2.690696716E-1,3.289263452E-1
2.526836000E-1,2.423639297E-1,7.672357559E-2,-3.550691605E-1,4.366931305E-1
2.574549540E-1,2.912386656E-1,-5.265951157E-3,-3.172054291E-1,4.306587684E-1
2.622255790E-1,4.347516298E-1,-7.092261314E-2,-2.891626358E-1,5.269288630E-1
2.669969330E-1,5.658890009E-1,-1.625208855E-1,-3.432569504E-1,6.815194300E-1
2.717691730E-1,8.444236517E-1,-6.539344788E-3,-8.507986069E-1,1.198729467E0
2.765405270E-1,1.017206669E0,-1.658177376E-1,-5.128946304E-1,1.151201907E0
2.813111000E-1,1.203546047E0,-1.437530518E-1,-2.541160583E-1,1.238451856E0
2.860825580E-1,1.413235903E0,-3.992462158E-2,-3.166942596E-1,1.448835721E0
2.908547450E-1,1.475727797E0,8.552694321E-2,-3.866777420E-1,1.527942101E0
2.956260480E-1,1.286934495E0,2.065942287E-1,-2.878961563E-1,1.334827991E0
3.003966730E-1,9.417552948E-1,1.945240498E-1,-5.853834152E-1,1.125795889E0
3.051681310E-1,8.747414351E-1,1.389536858E-1,-5.084199905E-1,1.021259806E0
3.099402660E-1,9.652127028E-1,5.001378059E-2,-4.542713165E-1,1.067941650E0
3.147116200E-1,9.710966349E-1,-3.884267807E-2,-3.289194107E-1,1.026024077E0
3.194822450E-1,9.066550732E-1,-8.318924904E-2,-1.764698029E-1,9.274079276E-1
3.242536000E-1,9.225898981E-1,-6.051826477E-2,2.018928528E-3,9.245748518E-1
3.290258390E-1,7.268663645E-1,-8.103418350E-2,2.885465622E-1,7.862317529E-1
3.337971410E-1,-3.015563488E-1,-3.929743767E-1,1.208917618E0,1.306463508E0
3.385677660E-1,-1.794496179E0,-6.671118736E-2,4.482320786E0,4.828650592E0
3.433392250E-1,-6.734118462E-1,-4.562139511E-3,3.879726410E0,3.937738100E0
3.481113600E-1,8.302249908E-1,-6.007289886E-2,3.259757996E0,3.364357959E0
3.528827140E-1,1.470103979E0,4.791021347E-3,3.319273949E0,3.630262829E0
3.576533390E-1,1.588062048E0,-5.770683289E-3,2.803627968E0,3.222158306E0
3.624246930E-1,1.416157246E0,-1.625888348E-1,2.057041168E0,2.502669543E0
3.671969330E-1,1.415772915E0,-3.780293465E-1,1.706440926E0,2.249279833E0
3.719682870E-1,1.763513446E0,-4.321563244E-1,6.785583496E-1,1.938344705E0
3.767388600E-1,2.070566654E0,-6.702580452E-1,-4.289054871E-1,2.218209195E0
3.815103180E-1,1.801258564E0,-6.581363678E-1,-1.848987579E0,2.663912717E0
3.862824540E-1,1.073825836E0,-4.010226727E-1,-2.890338421E0,3.109337115E0
3.910538080E-1,6.009471416E-1,-7.616591454E-2,-3.493880272E0,3.546003112E0
3.958244330E-1,3.085284829E-1,2.652921677E-1,-2.729527473E0,2.759690198E0
4.005958910E-1,-3.987312317E-3,4.572818279E-1,-4.232120514E-1,6.230818640E-1
4.053680270E-1,-1.812952757E-1,3.276402950E-1,1.152079582E0,1.211405590E0
4.101393810E-1,7.828994989E-1,-1.047518253E-1,7.886037827E-1,1.116154334E0
4.149100060E-1,8.026497364E-1,1.386771202E-1,-6.888198853E-2,8.174488800E-1
4.196813600E-1,1.037998199E0,4.956281185E-1,-8.359107971E-1,1.421912218E0
4.244536000E-1,1.977035046E0,5.258090496E-1,-1.680899620E0,2.647747394E0
4.292249020E-1,2.803785563E0,3.195309639E-1,-2.408729076E0,3.710160277E0
4.339955270E-1,3.257756233E0,-4.177808762E-3,-2.641811371E0,4.194300949E0
4.387669850E-1,3.248174667E0,-2.280251980E-1,-2.596062183E0,4.164393476E0
4.435391200E-1,2.933130264E0,-3.071758747E-1,-2.179730892E0,3.667265593E0
4.483104750E-1,2.460201263E0,-3.293604851E-1,-1.652324200E0,2.981818882E0
4.530811000E-1,1.872769117E0,-4.280457497E-1,-1.414801598E0,2.385822896E0
4.578524540E-1,1.474151611E0,-6.139440536E-1,-1.326563358E0,2.076010746E0
4.626246930E-1,1.361630321E0,-8.943328857E-1,-1.634719849E0,2.307851257E0
4.673960480E-1,1.007117987E0,-1.137253523E0,-1.868718624E0,2.408265249E0
4.721666200E-1,6.967699528E-1,-1.323540449E0,-2.102996826E0,2.580667227E0
4.769380790E-1,6.319606900E-1,-1.445592165E0,-2.763901711E0,3.182493313E0
4.817102660E-1,8.584294319E-1,-1.519171953E0,-3.666869640E0,4.060876441E0
4.864815680E-1,1.156147242E0,-1.555153728E0,-4.534317493E0,4.931046004E0
4.912521930E-1,1.393051744E0,-1.647314429E0,-4.882963181E0,5.338311288E0
4.960236520E-1,1.570643663E0,-1.832214832E0,-4.694061279E0,5.278081470E0
5.007957870E-1,2.389015436E0,-2.487533092E0,-5.093571663E0,6.151397234E0
5.055671410E-1,1.864439368E0,-2.102644920E0,-4.247505188E0,5.092990295E0
5.103377660E-1,1.130581260E0,-1.785511017E0,-3.705733776E0,4.265996530E0
5.151091200E-1,8.447923660E-1,-2.002880335E0,-3.986781597E0,4.540884416E0
5.198813600E-1,7.532024384E-1,-2.255616188E0,-4.224468231E0,4.847808798E0
5.246527140E-1,2.108516693E-1,-2.010966778E0,-3.586539268E0,4.117245406E0
5.294232870E-1,-1.268734932E-1,-1.678853273E0,-3.191004276E0,3.607929252E0
5.341947450E-1,-2.452213764E-1,-1.391749501E0,-2.037811279E0,2.479873990E0
5.389668810E-1,-1.100293994E0,-1.889917731E0,4.516213894E0,5.017830591E0
5.437382350E-1,-1.031936884E0,-5.651922226E-1,-4.799652100E-1,1.270709480E0
5.485088600E-1,-1.321932077E0,-1.132915854E0,-8.097000122E-1,1.920056473E0
5.532803180E-1,-1.880161047E0,-2.485612154E0,2.702047348E0,4.124843417E0
5.580524540E-1,-1.953374267E0,-1.947256804E0,2.535243034E0,3.746323174E0
5.628238080E-1,-1.707742333E0,-1.824174523E0,1.618179798E0,2.976995537E0
5.675944330E-1,-1.441874266E0,-2.348121643E0,1.593843460E0,3.183239486E0
5.723657870E-1,-9.332129955E-1,-2.675065517E0,9.694194794E-2,2.834829758E0
5.771380270E-1,-5.272078514E-2,-3.083863020E0,-1.762696743E0,3.552476659E0
5.819093290E-1,7.064833641E-1,-3.397642374E0,-2.678493023E0,4.383767480E0
5.866799540E-1,9.165740013E-1,-3.801643848E0,-2.917412758E0,4.878924169E0
5.914514120E-1,6.926498413E-1,-3.998715401E0,-3.061606407E0,5.083593458E0
5.962235480E-1,6.836731434E-1,-3.987027407E0,-3.500352383E0,5.349417100E0
6.009949020E-1,8.614778519E-1,-3.709543943E0,-4.680306911E0,6.033915242E0
6.057655270E-1,8.114895821E-1,-3.240119934E0,-5.973613739E0,6.844045122E0
6.105369850E-1,7.361741066E-1,-3.070875645E0,-5.800373077E0,6.604283260E0
6.153091200E-1,2.900028467E0,-4.199534416E0,-4.981589317E-1,5.127808181E0
6.200804750E-1,2.150702238E0,-2.546724796E0,-2.308536053E0,4.054709116E0
6.248511000E-1,2.807481289E0,-1.672126770E0,4.522023201E-1,3.298855265E0
6.296224540E-1,5.653802395E0,-4.178341627E-1,8.857043266E0,1.051604880E1
6.343946930E-1,4.040274143E0,5.670408010E-1,-5.521984100E0,6.865687062E0
6.391659950E-1,4.449917793E0,7.841697931E-1,-6.979187012E0,8.314189195E0
6.439366200E-1,5.122735023E0,7.787076831E-1,-5.462499619E0,7.529123578E0
6.487080790E-1,4.681920052E0,6.966306567E-1,-4.388470173E0,6.454792026E0
6.534802660E-1,4.230872631E0,4.426293373E-1,-4.059768677E0,5.880299793E0
6.582515680E-1,4.114260674E0,1.064547300E-1,-4.838550091E0,6.352168172E0
6.630221930E-1,4.081758499E0,-2.951863408E-1,-5.961940289E0,7.231363594E0
6.677936520E-1,3.771548271E0,-9.262204766E-1,-6.666872501E0,7.715545974E0
6.725657870E-1,3.241281986E0,-1.490585089E0,-6.922442913E0,7.787680573E0
6.773371410E-1,2.796912193E0,-1.894390583E0,-6.834550381E0,7.623812196E0
6.821077660E-1,2.660794735E0,-2.124546528E0,-6.688636780E0,7.505423942E0
6.868791200E-1,2.634815216E0,-2.255694866E0,-6.496645451E0,7.364564662E0
6.916513600E-1,2.562914371E0,-2.286091328E0,-6.215910912E0,7.101569692E0
6.964227140E-1,2.426016808E0,-2.314333677E0,-5.840170383E0,6.734188001E0
7.011932870E-1,2.295741081E0,-2.342871666E0,-5.451651096E0,6.362387479E0
7.059647450E-1,2.257441998E0,-2.359755516E0,-5.063383579E0,6.025142632E0
7.107369330E-1,2.350575447E0,-2.371729612E0,-4.738439560E0,5.796819451E0
7.155082350E-1,2.433799744E0,-2.363906860E0,-4.385517597E0,5.544745389E0
7.202788600E-1,2.544562340E0,-2.406988859E0,-4.156327724E0,5.435388949E0
7.250503180E-1,2.676716805E0,-2.556952953E0,-3.970553160E0,5.428454076E0
7.298224540E-1,2.833321571E0,-2.698374271E0,-3.745831013E0,5.416658085E0
7.345938080E-1,2.967107773E0,-2.731239557E0,-3.457059860E0,5.311747446E0
7.393644330E-1,3.066669941E0,-2.685287476E0,-3.105497837E0,5.124387785E0
7.441358910E-1,3.163425446E0,-2.673068285E0,-2.583163977E0,4.881115727E0
7.489080270E-1,3.224171638E0,-2.721151590E0,-1.827895522E0,4.597950714E0
7.536793810E-1,3.351171017E0,-2.815603495E0,-9.226257801E-1,4.473165384E0
7.584500060E-1,3.543467522E0,-2.947397470E0,1.151063442E-1,4.610484074E0
7.632213600E-1,3.771480560E0,-3.054962158E0,1.230258465E0,5.007034581E0
7.679936000E-1,4.008374214E0,-3.041503429E0,2.346376896E0,5.551872791E0
7.727649540E-1,4.211074829E0,-2.882187843E0,3.576890230E0,6.231717396E0
7.775355270E-1,4.322550774E0,-2.630486965E0,4.772343636E0,6.955513686E0
7.823069850E-1,4.355024338E0,-2.372077227E0,5.763114929E0,7.603057348E0
7.870791730E-1,4.427684784E0,-2.061028481E0,6.625673294E0,8.231146794E0
7.918504750E-1,4.587552071E0,-1.796755195E0,7.350621700E0,8.849045294E0
7.966211000E-1,4.757633209E0,-1.478354216E0,7.969168186E0,9.398310833E0
8.013925580E-1,4.918482780E0,-1.086569309E0,8.522089005E0,9.899399311E0
8.061646930E-1,5.096022606E0,-6.215809584E-1,9.082509995E0,1.043301477E1
8.109360480E-1,5.327839851E0,-9.950041771E-3,9.623015404E0,1.099947280E1
8.157066730E-1,5.660633087E0,6.873710155E-1,1.008326817E1,1.158393468E1
8.204780270E-1,6.014634132E0,1.471616387E0,1.042535210E1,1.212556988E1
8.252502660E-1,6.353389740E0,2.258349419E0,1.062408066E1,1.258319487E1
8.300216200E-1,6.721621513E0,3.075469971E0,1.071191788E1,1.301475685E1
8.347922450E-1,7.123332977E0,3.888560772E0,1.069056511E1,1.342203263E1
8.395636000E-1,7.500695229E0,4.672893524E0,1.070669079E1,1.388270832E1
8.443358390E-1,7.817649841E0,5.406154156E0,1.073418999E1,1.433753767E1
8.491071930E-1,8.033619881E0,5.994911194E0,1.092534733E1,1.482704363E1
8.538777660E-1,8.146373749E0,6.510730267E0,1.120249271E1,1.530519052E1
8.586492250E-1,8.122844696E0,6.944370270E0,1.161923981E1,1.578643779E1
8.634214120E-1,8.073009491E0,7.239403725E0,1.204522228E1,1.620709192E1
8.681927140E-1,7.913476944E0,7.442372322E0,1.244126225E1,1.651656833E1
8.729633390E-1,7.656617165E0,7.661718845E0,1.288046837E1,1.682950348E1
8.777347980E-1,7.419447899E0,7.964662552E0,1.325918579E1,1.715488457E1
8.825069330E-1,7.199262619E0,8.324776649E0,1.361513138E1,1.750722968E1
8.872782870E-1,7.119501114E0,8.620199203E0,1.399501324E1,1.791244054E1
8.920489120E-1,7.067311287E0,8.829830170E0,1.432149601E1,1.824878181E1
8.968203700E-1,7.018577576E0,9.003864288E0,1.461029530E1,1.854159464E1
9.015925060E-1,6.835214615E0,9.175741196E0,1.483035183E1,1.873108968E1
9.063638600E-1,6.599044800E0,9.416752815E0,1.495628548E1,1.886565931E1
9.111344850E-1,6.346301079E0,9.690579414E0,1.496841431E1,1.892713115E1
9.159058390E-1,6.122535706E0,9.891825676E0,1.482800865E1,1.884684322E1
9.206780790E-1,5.763577461E0,1.007296658E1,1.470855618E1,1.873566400E1
9.254494330E-1,5.375225067E0,1.013152313E1,1.445199108E1,1.844995533E1
9.302200060E-1,4.996004105E0,1.009168530E1,1.413452148E1,1.807171455E1
9.349914640E-1,4.566563606E0,9.987116814E0,1.371074009E1,1.756645665E1
9.397636520E-1,4.103998184E0,9.889461517E0,1.320039940E1,1.699690544E1
9.445349540E-1,3.610946655E0,9.762935638E0,1.270150185E1,1.642199736E1
9.493055790E-1,3.099484444E0,9.683839798E0,1.218501759E1,1.587004129E1
9.540770370E-1,2.581564903E0,9.585055351E0,1.166454506E1,1.531663719E1
9.588492250E-1,2.019066811E0,9.526466370E0,1.112011719E1,1.478131248E1
9.636205270E-1,1.550282478E0,9.512772560E0,1.054113007E1,1.428326435E1
9.683911520E-1,1.088917732E0,9.434390068E0,1.002633476E1,1.381017185E1
9.731626100E-1,6.373109818E-1,9.253820419E0,9.504140854E0,1.328036336E1
9.779347450E-1,9.544754028E-2,9.072513580E0,9.062336922E0,1.282363300E1
9.827061000E-1,-3.478631973E-1,8.817900658E0,8.789648056E0,1.245529180E1
9.874767250E-1,-6.189985275E-1,8.536803246E0,8.549488068E0,1.209768222E1
9.922481830E-1,-7.685298920E-1,8.342171669E0,8.346220970E0,1.182547550E1
9.970203180E-1,-7.038717270E-1,8.265007973E0,8.172697067E0,1.164468847E1
1.001791673E0,-4.473810196E-1,8.316582680E0,7.787450790E0,1.140219659E1
1.006562298E0,-9.749794006E-2,8.424410820E0,7.314756393E0,1.115732336E1
1.011333652E0,3.145093918E-1,8.528386116E0,6.895292282E0,1.097166084E1
1.016105891E0,8.599739075E-1,8.623319626E0,6.423924446E0,1.078740014E1
1.020877245E0,1.466911316E0,8.754199982E0,6.070239067E0,1.075340172E1
1.025647870E0,2.182813644E0,8.927607536E0,5.748296738E0,1.084019221E1
1.030419225E0,3.009617805E0,9.169221878E0,5.475408554E0,1.109560850E1
1.035191464E0,3.956359863E0,9.335500717E0,5.264280319E0,1.142440389E1
1.039962766E0,5.134449005E0,9.574350357E0,5.253962040E0,1.206792726E1
1.044733391E0,6.550034523E0,9.975082397E0,5.392323494E0,1.309512786E1
1.049504850E0,8.085671425E0,1.046390724E1,5.648097992E0,1.437958442E1
1.054277037E0,9.729638100E0,1.092648029E1,6.118172646E0,1.585830589E1
1.059048339E0,1.137994957E1,1.121807957E1,6.765077591E0,1.735266078E1
1.063818964E0,1.295416832E1,1.126443005E1,7.441931725E0,1.871043048E1
1.068590423E0,1.445851517E1,1.112314034E1,8.395172119E0,2.008113111E1
1.073362558E0,1.589924049E1,1.081368542E1,9.455446243E0,2.142725144E1
1.078133912E0,1.726581955E1,1.059110069E1,1.034792328E1,2.274553703E1
1.082904537E0,1.836418915E1,1.032111454E1,1.099489784E1,2.376250464E1
1.087675995E0,1.923217773E1,9.939638138E0,1.133122444E1,2.443501001E1
1.092448131E0,1.994744873E1,9.459866524E0,1.134773827E1,2.482258950E1
1.097219485E0,2.055136108E1,8.890607834E0,1.121148968E1,2.504194183E1
1.101990110E0,2.099663925E1,8.338444710E0,1.082926750E1,2.505317454E1
1.106761568E0,2.148888397E1,7.701781750E0,1.029650116E1,2.504211478E1
1.111533704E0,2.219450378E1,6.984382629E0,9.643825531E0,2.518692061E1
1.116305058E0,2.302197647E1,6.218008041E0,8.930184364E0,2.546415554E1
1.121075683E0,2.397330475E1,5.455254078E0,8.226296425E0,2.592587685E1
1.125847037E0,2.505574799E1,4.659916401E0,7.628089428E0,2.660250132E1
1.130619277E0,2.628884125E1,3.797909737E0,7.099922180E0,2.749429373E1
1.135390631E0,2.733946228E1,2.806705952E0,6.558521748E0,2.825487575E1
1.140161256E0,2.787108994E1,1.574428558E0,5.982877731E0,2.854945368E1
1.144932610E0,2.788933182E1,9.289789200E-2,5.306353092E0,2.838980173E1
1.149704850E0,2.737527466E1,-1.561429024E0,4.471699238E0,2.778200528E1
1.154476204E0,2.647567749E1,-3.356376171E0,3.524581432E0,2.691931340E1
1.159246777E0,2.532868767E1,-5.206928253E0,2.479500771E0,2.597695989E1
1.164018235E0,2.392423058E1,-6.881150246E0,1.545945168E0,2.494211266E1
1.168790423E0,2.223087692E1,-8.329829216E0,8.254616261E-1,2.375456441E1
1.173561777E0,2.037697792E1,-9.809450150E0,2.121059895E-1,2.261617851E1
1.178332350E0,1.845599747E1,-1.148217487E1,-4.370150566E-1,2.174063395E1
1.183103808E0,1.645808029E1,-1.324040031E1,-1.006059885E0,2.114683815E1
1.187875995E0,1.438062000E1,-1.489398193E1,-1.403462529E0,2.075096712E1
1.192647298E0,1.226847553E1,-1.634190941E1,-1.766842365E0,2.051085632E1
1.197417923E0,1.032159233E1,-1.777957916E1,-2.102478981E0,2.066565076E1
1.202189381E0,8.575148582E0,-1.916819572E1,-2.374895811E0,2.113274783E1
1.206961516E0,7.002565861E0,-2.054803658E1,-2.568509340E0,2.185989424E1
1.211732870E0,5.472836494E0,-2.189038849E1,-2.622630596E0,2.271605685E1
1.216503495E0,3.891757488E0,-2.306929398E1,-2.550638914E0,2.353388748E1
1.221274954E0,2.223020554E0,-2.405248451E1,-2.284539938E0,2.426278950E1
1.226047089E0,4.686551094E-1,-2.491269684E1,-1.782857180E0,2.498080625E1
1.230818443E0,-1.291073322E0,-2.574616241E1,-1.081834316E0,2.580120375E1
1.235589068E0,-3.171754599E0,-2.654380226E1,-2.291942835E-1,2.673361172E1
1.240360527E0,-5.093177319E0,-2.738953781E1,6.402894258E-1,2.786641719E1
1.245132662E0,-6.935247898E0,-2.831418228E1,1.368583441E0,2.918327607E1
1.249904016E0,-8.621672630E0,-2.947678185E1,1.926375508E0,3.077214373E1
1.254674641E0,-1.001963329E1,-3.083509445E1,1.332744956E0,3.244953482E1
1.259446100E0,-1.112391186E1,-3.250138855E1,8.389021158E-1,3.436255854E1
1.264218235E0,-1.166154099E1,-3.454701996E1,-2.666456699E-1,3.646312145E1
1.268989589E0,-1.177815151E1,-3.656210327E1,-1.390721083E0,3.843756436E1
1.273760214E0,-1.138852882E1,-3.836795807E1,-2.279793501E0,4.008735778E1
1.278531673E0,-1.080103588E1,-3.981322479E1,-2.896339893E0,4.135388772E1
1.283303808E0,-1.031616688E1,-4.087125015E1,-2.942553997E0,4.225566249E1
1.288075162E0,-9.706235886E0,-4.165164948E1,-2.466368675E0,4.283869622E1
1.292845787E0,-9.073404312E0,-4.198941803E1,-1.864549160E0,4.299900506E1
1.297617141E0,-8.237352371E0,-4.176077271E1,-1.526043892E0,4.259278015E1
1.302389381E0,-7.193675518E0,-4.114798737E1,-1.858897924E0,4.181341093E1
1.307160735E0,-6.026836395E0,-4.029271698E1,-2.908412457E0,4.084464055E1
1.311931360E0,-4.882729530E0,-3.946249390E1,-4.250857353E0,3.998998950E1
1.316702714E0,-4.093789577E0,-3.872043610E1,-5.465330601E0,3.931794912E1
1.321474954E0,-3.661002159E0,-3.804994965E1,-6.401657581E0,3.875800336E1
1.326246308E0,-3.487847805E0,-3.721723938E1,-7.041127205E0,3.803768476E1
1.331016933E0,-3.438133240E0,-3.607475281E1,-7.383411884E0,3.698274356E1
1.335788287E0,-3.457911491E0,-3.467763901E1,-7.165615082E0,3.557867112E1
1.340560527E0,-3.496397495E0,-3.326641846E1,-6.479402542E0,3.407142571E1
1.345331881E0,-3.338406086E0,-3.190887451E1,-5.471400738E0,3.254623563E1
1.350102454E0,-2.862430334E0,-3.066798019E1,-4.319971561E0,3.110274378E1
1.354873912E0,-1.997106552E0,-2.949487305E1,-3.187231541E0,2.973372522E1
1.359646100E0,-8.114271164E-1,-2.816049194E1,-2.266534328E0,2.826320750E1
1.364417402E0,6.408300400E-1,-2.658318710E1,-1.593157053E0,2.663859323E1
1.369188027E0,2.220161915E0,-2.479178238E1,-1.106623769E0,2.491558164E1
1.373959485E0,3.782531261E0,-2.293924141E1,-8.941414356E-1,2.326619496E1
1.378731673E0,5.114870071E0,-2.102772522E1,-9.825146198E-1,2.166315902E1
1.383502975E0,6.214196682E0,-1.905671692E1,-1.193258405E0,2.007980492E1
1.388273600E0,7.217966080E0,-1.701613808E1,-1.570266485E0,1.855030259E1
1.393045058E0,8.133940697E0,-1.491018295E1,-2.245818615E0,1.713237427E1
1.397817245E0,9.220333099E0,-1.284352303E1,-3.246325970E0,1.614029921E1
1.402588548E0,1.048634529E1,-1.086378479E1,-4.328348637E0,1.570731866E1
1.407359173E0,1.184092331E1,-8.861351013E0,-5.382346630E0,1.573850888E1
1.412130631E0,1.312863922E1,-6.736312389E0,-6.229810715E0,1.601716623E1
1.416902766E0,1.423952484E1,-4.586482048E0,-6.752896786E0,1.641345486E1
1.421674120E0,1.498698139E1,-2.596279144E0,-6.790497780E0,1.665716473E1
1.426444745E0,1.542551422E1,-9.862645864E-1,-6.625093937E0,1.681698774E1
1.431216204E0,1.553291607E1,2.294452190E-1,-6.494073868E0,1.683737278E1
1.435988391E0,1.526333904E1,1.120305419E0,-6.603069305E0,1.666808709E1
1.440759693E0,1.470270824E1,1.753230572E0,-7.077305317E0,1.641132833E1
1.445530318E0,1.387287140E1,2.157551289E0,-7.870399475E0,1.609517867E1
1.450301777E0,1.293704796E1,2.358063936E0,-8.925177574E0,1.589296920E1
1.455073912E0,1.207513809E1,2.480232477E0,-9.718747139E0,1.569759724E1
1.459845266E0,1.147344494E1,2.398796082E0,-9.993981361E0,1.540369517E1
1.464615891E0,1.144407749E1,1.978772640E0,-9.975150108E0,1.530967245E1
1.469387350E0,1.222936153E1,1.508495331E0,-9.925512314E0,1.582240931E1
1.474159485E0,1.389704895E1,1.311257839E0,-9.881992340E0,1.710266468E1
1.478930839E0,1.623280716E1,1.622557998E0,-9.225675583E0,1.874165982E1
1.483701464E0,1.911513519E1,2.438299656E0,-7.916442871E0,2.083275705E1
1.488472923E0,2.248443031E1,3.691885948E0,-6.179409504E0,2.360857323E1
1.493245058E0,2.623004150E1,5.351372242E0,-4.208882332E0,2.709920576E1
1.498016412E0,3.022848320E1,7.191292286E0,-2.037449837E0,3.113883561E1
1.502787037E0,3.414823532E1,9.130591393E0,2.708079815E-1,3.534887568E1
1.507558495E0,3.774428558E1,1.090125847E1,2.699188948E0,3.937961594E1
1.512330631E0,4.121084213E1,1.279483509E1,5.215822697E0,4.346545894E1
1.517101985E0,4.411430740E1,1.454594803E1,7.448676586E0,4.704401667E1
1.521872610E0,4.576140213E1,1.611950493E1,9.131529808E0,4.936931436E1
1.526644068E0,4.599959564E1,1.728375435E1,1.028918076E1,5.020516113E1
1.531416204E0,4.500374985E1,1.775425720E1,1.076054955E1,4.956148278E1
1.536187558E0,4.287171936E1,1.743015862E1,1.037615204E1,4.742846489E1
1.540958183E0,3.976813507E1,1.656897545E1,9.664121628E0,4.415235850E1
1.545729641E0,3.594509506E1,1.522545624E1,8.849344254E0,4.002718164E1
1.550501777E0,3.168676758E1,1.368106079E1,7.968902588E0,3.542211276E1
1.555273131E0,2.723712158E1,1.217354870E1,7.282079697E0,3.070968519E1
1.560043756E0,2.277381134E1,1.089223099E1,6.892455101E0,2.616855205E1
1.564815214E0,1.851847649E1,9.841706276E0,6.687018871E0,2.201157366E1
1.569587350E0,1.467041302E1,9.076411247E0,6.443201065E0,1.841513234E1
1.574358704E0,1.134521484E1,8.538064957E0,6.114565849E0,1.545963675E1
1.579129329E0,8.596549988E0,8.177230835E0,5.675458431E0,1.315213307E1
1.583900787E0,6.475683212E0,7.965029716E0,5.151260376E0,1.148527992E1
1.588672923E0,4.921379089E0,7.967298031E0,4.762923241E0,1.050634322E1
1.593444277E0,3.846169472E0,8.103098869E0,4.465686798E0,1.001975995E1
1.598214902E0,3.081933022E0,8.260351181E0,4.151120663E0,9.744922552E0
1.602986360E0,2.525530815E0,8.427424431E0,3.887802124E0,9.618461093E0
1.607758495E0,2.033581734E0,8.640360832E0,3.672515631E0,9.606178274E0
1.612529850E0,1.451171875E0,8.866313934E0,3.578110218E0,9.670589192E0
1.617300475E0,7.382621765E-1,8.975326538E0,3.717056036E0,9.742588110E0
1.622071933E0,-3.061103821E-2,8.970082283E0,4.024169922E0,9.831442252E0
1.626844068E0,-1.029613495E0,8.908678055E0,4.593517303E0,1.007596397E1
1.631615423E0,-2.215322018E0,8.773305893E0,5.253393650E0,1.046311105E1
1.636386048E0,-3.456197739E0,8.572761536E0,5.968447208E0,1.100272263E1
1.641157506E0,-4.711848736E0,8.344734192E0,6.665169239E0,1.167307107E1
1.645929641E0,-5.910812378E0,8.024144173E0,7.268488884E0,1.233513370E1
1.650700995E0,-6.986624718E0,7.682026863E0,7.751430511E0,1.295805297E1
1.655471620E0,-7.966029167E0,7.448548317E0,8.161514282E0,1.362163016E1
1.660243079E0,-8.904421806E0,7.298017502E0,8.438508034E0,1.427438983E1
1.665015214E0,-9.713749886E0,7.281290531E0,8.653894424E0,1.490852164E1
1.669786568E0,-1.040399361E1,7.203289986E0,8.690740585E0,1.535120326E1
1.674557193E0,-1.095613766E1,7.105934620E0,8.476637840E0,1.556870734E1
1.679328652E0,-1.131998348E1,7.039775848E0,7.966439724E0,1.552947623E1
1.684100787E0,-1.156724167E1,7.100034237E0,7.341938972E0,1.543099588E1
1.688872141E0,-1.165968418E1,7.216521263E0,6.576444626E0,1.520776243E1
1.693642766E0,-1.164285278E1,7.309958458E0,5.733814716E0,1.489523900E1
1.698414225E0,-1.147626877E1,7.458218575E0,4.879722118E0,1.453070738E1
1.703186360E0,-1.121756649E1,7.621722221E0,3.997787952E0,1.413883857E1
1.707957714E0,-1.086198235E1,7.736983776E0,3.088784933E0,1.368883380E1
1.712728339E0,-1.042158604E1,7.838804245E0,2.184006929E0,1.322218567E1
1.717499798E0,-9.896545410E0,7.904677868E0,1.390572667E0,1.274202635E1
1.722271933E0,-9.370692253E0,7.954943657E0,7.189166546E-1,1.231291367E1
1.727043287E0,-8.834455490E0,7.940639019E0,1.578302383E-1,1.187965750E1
1.731813912E0,-8.397722244E0,7.791840553E0,-2.970793247E-1,1.145961492E1
1.736585370E0,-8.043552399E0,7.463152409E0,-6.310484409E-1,1.099070522E1
1.741357506E0,-7.886400700E0,7.060276031E0,-7.647900581E-1,1.061262067E1
1.746128860E0,-7.901929855E0,6.605425835E0,-7.932201624E-1,1.032963427E1
1.750899485E0,-7.999039650E0,6.059267998E0,-7.602603436E-1,1.006366533E1
1.755670943E0,-8.213448524E0,5.571267128E0,-5.543930531E-1,9.940176343E0
1.760443079E0,-8.490138054E0,5.083128929E0,-2.049572468E-1,9.897608366E0
1.765214433E0,-8.695461273E0,4.577401161E0,2.330234051E-1,9.829442917E0
1.769985058E0,-8.805950165E0,4.151038170E0,7.024679184E-1,9.760601281E0
1.774756516E0,-8.771922112E0,3.778729916E0,1.215824008E0,9.628273226E0
1.779528652E0,-8.608141899E0,3.573245049E0,1.602060795E0,9.456996665E0
1.784300006E0,-8.235949516E0,3.567516327E0,1.898812532E0,9.174068139E0
1.789070631E0,-7.622214794E0,3.598354578E0,2.076748848E0,8.680967677E0
1.793842089E0,-6.853271484E0,3.631811857E0,2.180526733E0,8.056803599E0
1.798614225E0,-5.969936371E0,3.686676979E0,2.261829853E0,7.372082589E0
1.803385579E0,-5.024860382E0,3.745687723E0,2.366971970E0,6.699399576E0
1.808156204E0,-4.013296127E0,3.746162415E0,2.588941574E0,6.069835016E0
1.812927662E0,-2.849313259E0,3.742545605E0,2.809881449E0,5.479111918E0
1.817699798E0,-1.526112556E0,3.646224022E0,2.983801365E0,4.952478141E0
1.822471152E0,-1.277875900E-1,3.438370228E0,3.097713232E0,4.629745863E0
1.827241777E0,1.271300316E0,3.217345238E0,3.104960680E0,4.648472405E0
1.832013235E0,2.606379509E0,3.117510796E0,2.985867500E0,5.042568040E0
1.836785370E0,3.929714203E0,3.371097565E0,2.915387154E0,5.941921807E0
1.841556725E0,5.152325630E0,4.202929974E0,3.014884949E0,7.300726746E0
1.846327350E0,6.378432274E0,5.484430313E0,3.395739555E0,9.071627266E0
1.851098808E0,8.138593674E0,6.648933411E0,4.086810112E0,1.127594960E1
1.855870943E0,1.080354691E1,7.060517788E0,5.297750950E0,1.395111832E1
1.860642298E0,1.445184803E1,6.595438480E0,6.855233192E0,1.730173235E1
1.865412923E0,1.880996323E1,5.860912323E0,8.630497932E0,2.150931204E1
1.870184381E0,2.378926849E1,5.725974083E0,1.022762871E1,2.652018974E1
1.874956568E0,2.918197632E1,6.571533203E0,1.117203903E1,3.193097629E1
1.879727870E0,3.451428986E1,7.981188297E0,1.172817039E1,3.731602272E1
1.884498495E0,3.947295380E1,9.008337021E0,1.206772327E1,4.224800779E1
1.889269954E0,4.408598328E1,9.066407204E0,1.235080242E1,4.667243278E1
1.894042141E0,4.830219650E1,8.163254738E0,1.276859093E1,5.062388595E1
1.898813443E0,5.169848633E1,6.509274006E0,1.344211674E1,5.381258811E1
1.903584068E0,5.367420959E1,4.213798523E0,1.406418896E1,5.564600870E1
1.908355527E0,5.399789047E1,1.360487461E0,1.427284050E1,5.586892766E1
1.913127714E0,5.222449875E1,-1.744360447E0,1.417536545E1,5.414223904E1
1.917899016E0,4.849240494E1,-5.091938019E0,1.367378807E1,5.064003998E1
1.922669641E0,4.318249130E1,-8.387756348E0,1.304339886E1,4.588259218E1
1.927441100E0,3.726980209E1,-1.153960323E1,1.234449291E1,4.092171912E1
1.932213287E0,3.158337402E1,-1.439677048E1,1.130419254E1,3.650426391E1
1.936984641E0,2.649016762E1,-1.695899200E1,9.860363960E0,3.296305762E1
1.941755214E0,2.210194969E1,-1.911083794E1,8.115425110E0,3.032458461E1
1.946526673E0,1.836161423E1,-2.071665382E1,6.262438774E0,2.838215570E1
1.951298860E0,1.524423218E1,-2.175888824E1,4.460417271E0,2.693939781E1
1.956070214E0,1.263986588E1,-2.234718323E1,2.827491760E0,2.582939251E1
1.960840787E0,1.040147781E1,-2.257012939E1,1.515791774E0,2.489777312E1
1.965612245E0,8.495220184E0,-2.265045547E1,5.852773786E-1,2.419823235E1
1.970384433E0,6.822765350E0,-2.266244507E1,4.269209504E-2,2.366724247E1
1.975155787E0,5.343002319E0,-2.266359711E1,-2.386817932E-1,2.328611768E1
1.979926412E0,4.103004456E0,-2.265179443E1,-2.626491785E-1,2.302189004E1
1.984697766E0,3.061482906E0,-2.259439850E1,-6.310474873E-2,2.280095400E1
1.989470006E0,2.158486843E0,-2.249049568E1,2.574020028E-1,2.259530299E1
1.994241360E0,1.439339638E0,-2.243245506E1,5.622563362E-1,2.248561476E1
1.999011985E0,8.321566582E-1,-2.234035492E1,8.381010294E-1,2.237155238E1
2.003783443E0,2.029047012E-1,-2.219858170E1,1.080264091E0,2.222577715E1
2.008555579E0,-3.384070396E-1,-2.204637909E1,1.270548463E0,2.208555283E1
2.013326933E0,-7.747454643E-1,-2.193258476E1,1.458172798E0,2.199465328E1
2.018097558E0,-1.117092609E0,-2.188230133E1,1.564186692E0,2.196655839E1
2.022869016E0,-1.393233776E0,-2.195359612E1,1.577443600E0,2.205424701E1
2.027641152E0,-1.710049152E0,-2.211317062E1,1.369818449E0,2.222145328E1
2.032412506E0,-2.095241547E0,-2.222508621E1,9.252672195E-1,2.234279780E1
2.037183131E0,-2.822759390E0,-2.222750664E1,3.177764416E-1,2.240827980E1
2.041954589E0,-3.826994896E0,-2.218765259E1,-3.920732737E-1,2.251869310E1
2.046726725E0,-5.028723717E0,-2.217233849E1,-1.070961595E0,2.276065937E1
2.051498079E0,-6.437840939E0,-2.221220016E1,-1.691754818E0,2.318813633E1
2.056268704E0,-7.966876984E0,-2.232568741E1,-2.251914024E0,2.381131168E1
2.061040162E0,-9.569913864E0,-2.244479370E1,-2.810540676E0,2.456117169E1
2.065812298E0,-1.112262344E1,-2.257564163E1,-3.433478117E0,2.540002203E1
2.070583652E0,-1.253413200E1,-2.260033607E1,-4.028150558E0,2.615541345E1
2.075354277E0,-1.371047783E1,-2.251886368E1,-4.387162685E0,2.672683333E1
2.080125735E0,-1.469349670E1,-2.222158813E1,-4.606350899E0,2.703546362E1
2.084897923E0,-1.550817680E1,-2.186422539E1,-4.702469826E0,2.721508997E1
2.089669225E0,-1.615319252E1,-2.145155144E1,-4.577349663E0,2.724053629E1
2.094439850E0,-1.653879547E1,-2.107429504E1,-4.281106949E0,2.712905350E1
2.099211308E0,-1.667552567E1,-2.066782570E1,-3.832768679E0,2.683136767E1
2.103983495E0,-1.657850456E1,-2.025612450E1,-3.337529421E0,2.638743064E1
2.108754798E0,-1.624774742E1,-1.973445511E1,-2.950362921E0,2.573213275E1
2.113525423E0,-1.571387863E1,-1.913468170E1,-2.689900637E0,2.490577425E1
2.118296881E0,-1.510771751E1,-1.849572754E1,-2.471992254E0,2.400928594E1
2.123069068E0,-1.454092216E1,-1.783013535E1,-2.263499260E0,2.311872775E1
2.127840370E0,-1.408908081E1,-1.713843918E1,-2.110188961E0,2.228634544E1
2.132610995E0,-1.360762882E1,-1.637342834E1,-2.047866344E0,2.138809189E1
2.137382454E0,-1.311263275E1,-1.556430149E1,-1.945214987E0,2.044437526E1
2.142154641E0,-1.251746559E1,-1.477121925E1,-1.788301945E0,1.944412217E1
2.146925995E0,-1.188393593E1,-1.396111298E1,-1.582906723E0,1.840234231E1
2.151696620E0,-1.120197868E1,-1.315374851E1,-1.282851219E0,1.732487038E1
2.156467975E0,-1.033275604E1,-1.240226364E1,-9.260590076E-1,1.616909324E1
2.161240214E0,-9.204668045E0,-1.172607422E1,-7.077660561E-1,1.492406323E1
2.166011568E0,-7.932714462E0,-1.113962936E1,-6.054260731E-1,1.368889484E1
2.170782193E0,-6.605374336E0,-1.055466080E1,-3.390805721E-1,1.245579425E1
2.175553548E0,-5.339732647E0,-9.801878929E0,2.692887783E-1,1.116521794E1
2.180325787E0,-4.080300331E0,-8.753036499E0,1.014694571E0,9.710515116E0
2.185097141E0,-2.871724606E0,-7.712131977E0,1.552724600E0,8.374648382E0
2.189867766E0,-1.849866867E0,-6.978840351E0,1.675678730E0,7.411755479E0
2.194639225E0,-1.240023136E0,-6.657042980E0,1.311743379E0,6.897430631E0
2.199411360E0,-1.043391705E0,-6.603184223E0,7.799003124E-1,6.730449660E0
2.204182714E0,-1.032213211E0,-6.269741058E0,5.833646059E-1,6.380864465E0
2.208953339E0,-8.984441757E-1,-5.269840240E0,9.340806007E-1,5.426870614E0
2.213724798E0,2.680964470E-1,-3.385229588E0,1.779520631E0,3.833842556E0
2.218496933E0,3.138893127E0,-6.939268112E-1,3.288765907E0,4.598930928E0
2.223268287E0,8.131216049E0,2.641808510E0,5.540369511E0,1.018781237E1
2.228038912E0,1.499502945E1,6.198578358E0,8.522196770E0,1.832760540E1
2.232810370E0,2.298136902E1,9.292461395E0,1.214777851E1,2.760546474E1
2.237582558E0,3.109539413E1,1.172853661E1,1.627140236E1,3.700325178E1
2.242353860E0,3.821249390E1,1.333790207E1,2.022020531E1,4.524324286E1
2.247124485E0,4.359291077E1,1.411813736E1,2.359559250E1,5.154042740E1
2.251895943E0,4.680356979E1,1.394026756E1,2.592950630E1,5.529235483E1
2.256668131E0,4.776206207E1,1.295372963E1,2.724527168E1,5.649175616E1
2.261439433E0,4.682225800E1,1.136550331E1,2.773410797E1,5.559387785E1
2.266210058E0,4.447416687E1,9.605550766E0,2.744808769E1,5.313770453E1
2.270981516E0,4.150799561E1,8.016555786E0,2.674206543E1,5.002316393E1
2.275753704E0,3.855570221E1,6.302069187E0,2.546923828E1,4.663625572E1
2.280525058E0,3.565718842E1,4.570322037E0,2.384894371E1,4.314041082E1
2.285295631E0,3.281139374E1,2.841777802E0,2.208977890E1,3.965629322E1
2.290067089E0,2.995890236E1,1.092828274E0,1.995377350E1,3.601226431E1
2.294839277E0,2.715336227E1,-5.794258118E-1,1.727013588E1,3.218537572E1
2.299610631E0,2.430504608E1,-2.172933578E0,1.408473778E1,2.817510858E1
2.304381256E0,2.129292679E1,-3.675642729E0,1.072971725E1,2.412521322E1
2.309152714E0,1.819648743E1,-5.111439228E0,7.361490250E0,2.028374976E1
2.313924850E0,1.503720379E1,-6.433091164E0,4.191034317E0,1.688392515E1
2.318696204E0,1.185735798E1,-7.500984192E0,1.262220860E0,1.408740230E1
2.323466829E0,8.782382965E0,-8.301092148E0,-1.377984881E0,1.216294470E1
2.328238287E0,6.087772369E0,-8.985371590E0,-3.774458170E0,1.149105781E1
2.333010423E0,3.675623894E0,-9.474558830E0,-5.786684036E0,1.169457944E1
2.337781777E0,1.567893982E0,-9.711873055E0,-7.315192699E0,1.225931540E1
2.342552402E0,-4.068584442E-1,-9.691171646E0,-8.278496742E0,1.275217040E1
2.347323860E0,-2.419627666E0,-9.169828415E0,-8.477300644E0,1.272025854E1
2.352096048E0,-3.737133503E0,-8.979396820E0,-8.806625366E0,1.312068536E1
2.356867350E0,-4.831895828E0,-9.168211937E0,-9.419860840E0,1.400489577E1
2.361637975E0,-5.934332371E0,-9.258375168E0,-1.013486195E1,1.495490682E1
2.366409433E0,-6.894209862E0,-9.150562286E0,-1.080044937E1,1.574524139E1
2.371181620E0,-7.681026936E0,-8.841221809E0,-1.132130527E1,1.628917834E1
2.375952975E0,-8.326233864E0,-8.374740601E0,-1.162612820E1,1.657194338E1
2.380723548E0,-8.813280106E0,-7.838438034E0,-1.166990471E1,1.659221784E1
2.385495006E0,-9.103869438E0,-7.255106449E0,-1.147197342E1,1.634390353E1
2.390267193E0,-9.264719009E0,-6.657121658E0,-1.108257675E1,1.590521281E1
2.395038548E0,-9.300248146E0,-6.119584560E0,-1.058735085E1,1.536346083E1
2.399809173E0,-9.253097534E0,-5.628767967E0,-9.928066254E0,1.469249272E1
2.404580527E0,-9.127786636E0,-5.175444126E0,-9.023051262E0,1.383897268E1
2.409352766E0,-8.885888100E0,-4.805127621E0,-7.991543293E0,1.288072292E1
2.414124120E0,-8.579742432E0,-4.582302094E0,-6.988126755E0,1.197678539E1
2.418894745E0,-8.194627762E0,-4.449485779E0,-5.980769157E0,1.107788101E1
2.423666204E0,-7.763628006E0,-4.373105049E0,-5.049680233E0,1.024193527E1
2.428438339E0,-7.432306767E0,-4.352579594E0,-3.247224092E0,9.204813811E0
2.433209693E0,-7.522721767E0,-3.906542778E0,-6.868522167E-1,8.504362718E0
2.437980318E0,-7.242309570E0,-3.537802696E0,-3.998112679E-1,8.070126695E0
2.442751777E0,-6.728065491E0,-3.654633045E0,-7.923316956E-2,7.656989346E0
2.447523912E0,-6.250263691E0,-3.816639423E0,5.699188709E-1,7.345566024E0
2.452295266E0,-5.939122200E0,-3.728675127E0,1.201208711E0,7.114709627E0
2.457065891E0,-5.857381821E0,-3.507409096E0,1.700073481E0,7.035701116E0
2.461837350E0,-5.936813354E0,-3.354499340E0,1.895390034E0,7.077494049E0
2.466609537E0,-6.100512981E0,-3.298216820E0,2.039182663E0,7.228606972E0
2.471380839E0,-6.427308083E0,-3.321087360E0,2.175660610E0,7.554694536E0
2.476151464E0,-6.921965122E0,-3.319603920E0,2.373301983E0,8.035293003E0
2.480922923E0,-7.508152962E0,-3.286065102E0,2.666956425E0,8.618772611E0
2.485695110E0,-8.124281883E0,-3.269931078E0,3.052649260E0,9.274431135E0
2.490466464E0,-8.704270363E0,-3.337102890E0,3.377656937E0,9.915096804E0
2.495237089E0,-9.284798622E0,-3.376729012E0,3.699030161E0,1.054953119E1
2.500008443E0,-9.785308838E0,-3.376180172E0,4.003190041E0,1.109848603E1
2.504780683E0,-1.018243885E1,-3.378158808E0,4.237483978E0,1.153474266E1
2.509552037E0,-1.053871536E1,-3.399082184E0,4.408274174E0,1.191852182E1
2.514322662E0,-1.080649090E1,-3.414786100E0,4.551976204E0,1.221316900E1
2.519094120E0,-1.097870827E1,-3.372581959E0,4.720757961E0,1.241740311E1
2.523866256E0,-1.104113960E1,-3.253287315E0,4.888058662E0,1.250534924E1
2.528637610E0,-1.100569916E1,-3.076375008E0,5.053138256E0,1.249494711E1
2.533408235E0,-1.087463570E1,-2.830470562E0,5.296778679E0,1.242276658E1
2.538179693E0,-1.065270138E1,-2.652256012E0,5.594881058E0,1.232141236E1
2.542951829E0,-1.035659981E1,-2.501453400E0,5.904386997E0,1.218105966E1
2.547723183E0,-1.012734413E1,-2.318802834E0,6.191759109E0,1.209453706E1
2.552493808E0,-9.928824425E0,-2.133747578E0,6.347492218E0,1.197602149E1
2.557265266E0,-9.768097878E0,-1.968415499E0,6.367854118E0,1.182539478E1
2.562037454E0,-9.685610771E0,-1.811501741E0,6.197272301E0,1.164039426E1
2.566808808E0,-9.669161797E0,-1.642025471E0,5.879042149E0,1.143468732E1
2.571579381E0,-9.723180771E0,-1.474945545E0,5.490567684E0,1.126330512E1
2.576350839E0,-9.976400375E0,-1.215026617E0,5.178707123E0,1.130592153E1
2.581123027E0,-1.039723969E1,-9.367644787E-1,4.987271309E0,1.156948555E1
2.585894381E0,-1.092317581E1,-6.546525955E-1,4.828332424E0,1.196064939E1
2.590665006E0,-1.148719025E1,-3.805086613E-1,4.788092136E0,1.245094988E1
2.595436360E0,-1.210607338E1,-2.311484814E-1,4.735119343E0,1.300122292E1
2.600208600E0,-1.262200642E1,-1.176638603E-1,4.651206970E0,1.345223465E1
2.604979954E0,-1.309729862E1,-4.431939125E-2,4.590207100E0,1.387844360E1
2.609750579E0,-1.352521896E1,-7.697534561E-2,4.884423256E0,1.438037078E1
2.614522037E0,-1.387777519E1,-2.619857788E-1,5.482501030E0,1.492377628E1
2.619294173E0,-1.407208443E1,-4.642601013E-1,6.275242805E0,1.541485549E1
2.624065527E0,-1.410901260E1,-6.138064861E-1,7.217837334E0,1.585995494E1
2.628836152E0,-1.405867004E1,-6.480810642E-1,8.203549385E0,1.629001028E1
2.633607610E0,-1.380697060E1,-6.790177822E-1,8.975790977E0,1.648206073E1
2.638379745E0,-1.331872463E1,-7.587990761E-1,9.627739906E0,1.645167401E1
2.643151100E0,-1.274503231E1,-8.062152863E-1,1.010402489E1,1.628426082E1
2.647921725E0,-1.211482811E1,-7.860250473E-1,1.051362514E1,1.605998783E1
2.652693183E0,-1.135410881E1,-6.873815060E-1,1.075013924E1,1.565099913E1
2.657465370E0,-1.039337444E1,-5.019040108E-1,1.048677731E1,1.477317292E1
2.662236725E0,-9.330094337E0,-1.279728413E-1,9.614316940E0,1.339784041E1
2.667007350E0,-8.452635765E0,4.617156982E-1,8.623908043E0,1.208437101E1
2.671778704E0,-7.712070465E0,1.055809021E0,7.651963711E0,1.091527884E1
2.676550943E0,-6.913713932E0,1.663519382E0,6.708765984E0,9.776209802E0
2.681322298E0,-6.037762642E0,2.289702892E0,6.022261620E0,8.829776445E0
2.686092923E0,-5.222906113E0,2.823126793E0,5.987914085E0,8.432313339E0
2.690864381E0,-4.323826790E0,3.158297062E0,6.539940357E0,8.452285982E0
2.695636516E0,-3.217489719E0,3.443769217E0,7.448683739E0,8.814458347E0
2.700407870E0,-1.750379086E0,3.696385622E0,8.688919067E0,9.603354006E0
2.705178495E0,-9.706687927E-2,3.873445988E0,1.028919411E1,1.099456780E1
2.709949954E0,1.881381035E0,3.907709360E0,1.179008961E1,1.256248383E1
2.714722141E0,4.288257599E0,3.869213343E0,1.316785049E1,1.437888215E1
2.719493443E0,6.907139778E0,4.012759686E0,1.435882568E1,1.643127187E1
2.724264068E0,9.697574615E0,4.541202068E0,1.503434658E1,1.845798057E1
2.729035527E0,1.274192429E1,5.292607307E0,1.533909321E1,2.063143493E1
2.733807714E0,1.592929649E1,6.054127693E0,1.538517380E1,2.295862630E1
2.738579068E0,1.900826263E1,6.779840469E0,1.511834908E1,2.521596248E1
2.743349693E0,2.147918320E1,7.333488464E0,1.471019173E1,2.704672077E1
2.748121048E0,2.298134995E1,7.568789482E0,1.425582314E1,2.808304671E1
2.752893287E0,2.346444321E1,7.243976116E0,1.395902824E1,2.824729641E1
2.757664641E0,2.307091522E1,6.447468758E0,1.394254494E1,2.771699013E1
2.762435266E0,2.196873474E1,5.371477127E0,1.406439495E1,2.663241029E1
2.767206725E0,2.063128281E1,4.251306534E0,1.411007500E1,2.535384890E1
2.771978860E0,1.938754272E1,3.255019903E0,1.428210735E1,2.429918842E1
2.776750214E0,1.842507362E1,2.371354580E0,1.456777191E1,2.360776650E1
2.781520839E0,1.761130714E1,1.660627961E0,1.489146137E1,2.312296362E1
2.786292298E0,1.692184448E1,1.299744606E0,1.533658314E1,2.287463528E1
2.791064485E0,1.643524933E1,1.376060009E0,1.600502205E1,2.298198626E1
2.795835787E0,1.635684204E1,1.665479183E0,1.681217003E1,2.351529637E1
2.800606412E0,1.692303085E1,2.175348282E0,1.760293579E1,2.451498444E1
2.805377870E0,1.826973343E1,2.789599419E0,1.843073273E1,2.610089909E1
2.810150058E0,2.035844612E1,3.371417284E0,1.918664551E1,2.817729847E1
2.814921412E0,2.301946259E1,3.897380352E0,1.977017403E1,3.059321840E1
2.819692037E0,2.585624695E1,4.402798653E0,2.015108490E1,3.307561587E1
2.824463391E0,2.850135040E1,4.774246216E0,2.027527046E1,3.530165710E1
2.829235631E0,3.075014687E1,5.013702869E0,1.986285973E1,3.694918058E1
2.834006985E0,3.232863998E1,5.140804291E0,1.879093170E1,3.774477376E1
2.838777610E0,3.331904984E1,5.030691147E0,1.734235954E1,3.789755097E1
2.843549068E0,3.363599777E1,4.636427879E0,1.545468998E1,3.730582062E1
2.848321204E0,3.319669342E1,4.074818611E0,1.327660084E1,3.598461797E1
2.853092558E0,3.204293060E1,3.473302841E0,1.094295788E1,3.403764918E1
2.857863183E0,3.030512238E1,2.807016850E0,8.567265511E0,3.161768214E1
2.862634641E0,2.815657425E1,1.897146106E0,6.264665604E0,2.890740168E1
2.867406829E0,2.566266251E1,7.932982445E-1,3.966118813E0,2.597944702E1
2.872178183E0,2.292691040E1,-2.682881355E-1,2.045494795E0,2.301954057E1
2.876948808E0,2.014091682E1,-1.297640204E0,3.473015428E-1,2.018566370E1
2.881720162E0,1.738573647E1,-2.211485147E0,-1.051847935E0,1.755735980E1
2.886492402E0,1.482817364E1,-2.903262615E0,-2.140295744E0,1.526055481E1
2.891263756E0,1.267296600E1,-3.437515020E0,-3.012881041E0,1.347212043E1
2.896034381E0,1.090227985E1,-3.920377731E0,-3.724673986E0,1.216972735E1
2.900805839E0,9.455356598E0,-4.348602772E0,-4.286530018E0,1.125559657E1
2.905577975E0,8.149687767E0,-4.757632256E0,-4.626894951E0,1.051002532E1
2.910349329E0,7.011039734E0,-5.061189651E0,-4.809874535E0,9.894706255E0
2.915119954E0,6.053254128E0,-5.285791874E0,-4.946440220E0,9.436564635E0
2.919891412E0,5.254483223E0,-5.424949169E0,-4.898579121E0,9.001985605E0
2.924663600E0,4.588306427E0,-5.493966103E0,-4.636466503E0,8.528366845E0
2.929434902E0,4.054802895E0,-5.611123085E0,-4.252444744E0,8.124617843E0
2.934205527E0,3.570327759E0,-5.793831348E0,-3.783772469E0,7.786697380E0
2.938976985E0,3.199648857E0,-6.095420837E0,-3.291535616E0,7.630603823E0
2.943749173E0,2.864011765E0,-6.470945358E0,-2.806125879E0,7.612492343E0
2.948520527E0,2.587614059E0,-6.868321896E0,-2.253042459E0,7.677616330E0
2.953291152E0,2.420866013E0,-7.330916405E0,-1.704019308E0,7.906112154E0
2.958062610E0,2.265750885E0,-7.966297626E0,-1.478816748E0,8.413229102E0
2.962834745E0,2.026667595E0,-8.719183922E0,-1.504160285E0,9.077116721E0
2.967606100E0,1.672386169E0,-9.524401665E0,-1.754209757E0,9.827937446E0
2.972376725E0,1.128656387E0,-1.025948524E1,-2.122082710E0,1.053727373E1
2.977148183E0,2.471323013E-1,-1.095254898E1,-2.377241611E0,1.121029354E1
2.981920370E0,-9.747977257E-1,-1.156436634E1,-2.738786221E0,1.192416661E1
2.986691725E0,-2.549957275E0,-1.210999680E1,-3.274427891E0,1.280141330E1
2.991462298E0,-4.448599815E0,-1.260635281E1,-3.827538252E0,1.390540256E1
2.996233756E0,-6.275700569E0,-1.304856491E1,-4.425742626E0,1.514056345E1
3.001005943E0,-7.782338142E0,-1.352329063E1,-4.891179562E0,1.635138569E1
3.005777298E0,-8.194961548E0,-1.368411636E1,-5.012953758E0,1.671951377E1
3.010547923E0,-8.689888000E0,-1.440336990E1,-4.743079185E0,1.747764338E1
3.015319381E0,-9.974363327E0,-1.584279346E1,-4.760780334E0,1.931701473E1
3.020091516E0,-1.098640537E1,-1.715464592E1,-4.890319824E0,2.094989756E1
3.024862870E0,-1.114720345E1,-1.798634911E1,-5.170130730E0,2.178300141E1
3.029633495E0,-1.091627884E1,-1.781611633E1,-5.442028046E0,2.159154497E1
3.034404954E0,-1.081721210E1,-1.738947868E1,-5.101405621E0,2.110522177E1
3.039177141E0,-1.127261734E1,-1.773500443E1,-4.355238914E0,2.146090375E1
3.043948443E0,-1.089894962E1,-1.881217194E1,-3.883813381E0,2.208549122E1
3.048719068E0,-1.033359909E1,-1.937210464E1,-3.713927746E0,2.226780115E1
3.053490527E0,-1.119973946E1,-1.929170609E1,-3.817089081E0,2.263126723E1
3.058262714E0,-1.191476727E1,-2.018611145E1,-3.957476377E0,2.377188242E1
3.063034068E0,-1.229089642E1,-2.144625092E1,-3.960014582E0,2.503376777E1
3.067804693E0,-1.255826378E1,-2.221127129E1,-3.972258806E0,2.582304013E1
3.072576152E0,-1.229342079E1,-2.225078773E1,-4.150845528E0,2.575762544E1
3.077348287E0,-1.224278450E1,-2.202954865E1,-4.536790848E0,2.560799205E1
3.082119641E0,-1.228155708E1,-2.192750931E1,-5.038552761E0,2.563277829E1
3.086890266E0,-1.212717056E1,-2.210410309E1,-5.572812557E0,2.582084195E1
3.091661725E0,-1.168811798E1,-2.222907639E1,-6.175009727E0,2.586261170E1
3.096433912E0,-1.083856010E1,-2.211720848E1,-6.699715137E0,2.552511467E1
3.101205214E0,-8.888040543E0,-2.140277481E1,-7.035696507E0,2.421935300E1
3.105975839E0,-8.471764565E0,-2.119091797E1,-6.863523483E0,2.383136072E1
3.110747298E0,-8.217723846E0,-2.113824463E1,-6.282409668E0,2.353348768E1
3.115519485E0,-8.003831863E0,-2.101692581E1,-5.581734657E0,2.317171243E1
3.120290839E0,-7.252047539E0,-2.116289330E1,-5.168739796E0,2.296031614E1
3.125061464E0,-5.891077995E0,-2.157046318E1,-5.211118221E0,2.295964797E1
3.129832923E0,-3.883435249E0,-2.131891251E1,-5.035651684E0,2.224713212E1
3.134605058E0,-1.851341248E0,-2.040489006E1,-4.617362022E0,2.100254829E1
3.139376412E0,-4.557366371E-1,-1.941139221E1,-4.262006283E0,1.987899749E1
3.144147037E0,7.035865784E-1,-1.881133080E1,-4.094360828E0,1.926460461E1
3.148918495E0,2.007430077E0,-1.825986862E1,-4.406182766E0,1.889092439E1
3.153690683E0,3.212589264E0,-1.753537178E1,-5.053120136E0,1.852954442E1
3.158462037E0,4.429957390E0,-1.668421364E1,-5.716245651E0,1.818414066E1
3.163232662E0,5.700847626E0,-1.579570770E1,-6.445302963E0,1.798738379E1
3.168004016E0,6.801116943E0,-1.485370064E1,-7.239439964E0,1.786888652E1
3.172776256E0,7.705251694E0,-1.406354618E1,-8.238026619E0,1.802829214E1
3.177547610E0,8.801614761E0,-1.346534443E1,-9.235235214E0,1.854921811E1
3.182318235E0,1.009784698E1,-1.275988197E1,-9.856779099E0,1.902464706E1
3.187089693E0,1.131911087E1,-1.199003029E1,-9.969554901E0,1.926850078E1
3.191861881E0,1.247010231E1,-1.136305618E1,-9.511789322E0,1.936741164E1
3.196633183E0,1.350017166E1,-1.061213303E1,-8.563897133E0,1.918885969E1
3.201403808E0,1.447334194E1,-9.603949547E0,-7.514727592E0,1.892576563E1
3.206175266E0,1.561155224E1,-8.329257965E0,-6.596665382E0,1.888420228E1
3.210947454E0,1.695738029E1,-6.769405365E0,-5.812217236E0,1.916140560E1
3.215718808E0,1.857544518E1,-4.868097305E0,-5.277763367E0,1.991482666E1
3.220489433E0,2.092339897E1,-2.816632509E0,-5.272068977E0,2.176044013E1
3.225260891E0,2.422954750E1,-5.887207389E-1,-5.512032032E0,2.485558411E1
3.230033027E0,2.821438980E1,1.894636631E0,-5.426841736E0,2.879395859E1
3.234804381E0,3.212442017E1,4.140013218E0,-5.181560516E0,3.280193058E1
3.239575006E0,3.695878220E1,6.956834793E0,-5.121435165E0,3.795495001E1
3.244346464E0,4.216233826E1,1.055300903E1,-4.791806221E0,4.372630986E1
3.249118652E0,4.680817795E1,1.445974541E1,-3.950554371E0,4.914973693E1
3.253890006E0,5.030613327E1,1.800533867E1,-2.506523371E0,5.349001706E1
3.258660579E0,5.240158081E1,2.098097992E1,-6.867933273E-1,5.644996789E1
3.263432037E0,5.271472168E1,2.357878876E1,1.714984775E0,5.777319737E1
3.268204225E0,5.069595337E1,2.568018150E1,4.956926823E0,5.704491681E1
3.272975579E0,4.679296112E1,2.680932617E1,8.075701714E0,5.453015806E1
3.277746204E0,4.200149918E1,2.723079872E1,1.057603931E1,5.116145951E1
3.282517662E0,3.677876663E1,2.731809235E1,1.250971794E1,4.749156649E1
3.287289798E0,3.122338104E1,2.698313141E1,1.393864250E1,4.355771641E1
3.292061152E0,2.567575836E1,2.613751984E1,1.477761650E1,3.950686599E1
3.296831777E0,2.061869049E1,2.501861763E1,1.499647903E1,3.572052644E1
3.301603235E0,1.611508560E1,2.394265366E1,1.462656593E1,3.235557261E1
3.306375423E0,1.214596081E1,2.307559776E1,1.388073635E1,2.954119865E1
3.311146777E0,8.794730186E0,2.236005402E1,1.286819077E1,2.725636858E1
3.315917402E0,6.115612030E0,2.166649437E1,1.179052353E1,2.541366038E1
3.320688860E0,4.002185822E0,2.108488464E1,1.074569225E1,2.400124484E1
3.325460995E0,2.278494835E0,2.071875381E1,9.699626923E0,2.299002090E1
3.330232350E0,8.977642059E-1,2.045616531E1,8.744745255E0,2.226502301E1
3.335002975E0,-8.173370361E-2,2.024214935E1,7.911201477E0,2.173334764E1
3.339774433E0,7.669067383E-2,1.954405785E1,5.955520630E0,2.043145380E1
3.344546620E0,-1.186109543E0,2.065400505E1,6.105378151E0,2.157012802E1
3.349317975E0,-2.618168354E0,2.167461395E1,6.933741570E0,2.290677777E1
3.354088600E0,-2.816268921E0,2.158110237E1,6.118980885E0,2.260790298E1
3.358859954E0,-3.107623577E0,2.131678391E1,5.075885773E0,2.213204050E1
3.363632193E0,-4.334053516E0,2.144709587E1,4.923455238E0,2.242771394E1
3.368403548E0,-5.339217186E0,2.137806702E1,4.891396999E0,2.257110441E1
3.373174173E0,-6.070669174E0,2.119331551E1,4.793142319E0,2.256067064E1
3.377945631E0,-7.332008362E0,2.119307327E1,5.332582951E0,2.305083821E1
3.382717818E0,-8.469340324E0,2.105783081E1,6.068503857E0,2.349443983E1
3.387489120E0,-9.310132980E0,2.067598152E1,6.646906376E0,2.362956099E1
3.392259745E0,-1.009314823E1,2.015122414E1,7.113823891E0,2.363366171E1
3.397031204E0,-1.081804276E1,1.962793732E1,7.626733303E0,2.367388927E1
3.401803391E0,-1.148956966E1,1.912365532E1,8.382761955E0,2.383264781E1
3.406574745E0,-1.208162117E1,1.871306419E1,9.138436317E0,2.407603289E1
3.411345370E0,-1.269231129E1,1.819363022E1,9.753621101E0,2.423295423E1
3.416116829E0,-1.342670822E1,1.746602058E1,1.014829254E1,2.425543671E1
3.420888964E0,-1.414109802E1,1.651459503E1,1.035496140E1,2.408168864E1
3.425660318E0,-1.459629154E1,1.540971851E1,1.037991714E1,2.362739578E1
3.430430943E0,-1.482335949E1,1.423338699E1,1.035912132E1,2.301374994E1
3.435202402E0,-1.489830017E1,1.304151917E1,1.031460857E1,2.232558443E1
3.439974589E0,-1.473184776E1,1.193811417E1,1.038846874E1,2.162096647E1
3.444745943E0,-1.445244789E1,1.108212757E1,1.060562325E1,2.107524723E1
3.449516568E0,-1.417647171E1,1.041729069E1,1.089069366E1,2.069056558E1
3.454288027E0,-1.385997486E1,9.894401550E0,1.116162586E1,2.036123712E1
3.459060162E0,-1.331335831E1,9.394928932E0,1.134855556E1,1.985698649E1
3.463831516E0,-1.255791092E1,9.092101097E0,1.143651772E1,1.926554869E1
3.468602141E0,-1.172265053E1,8.969652176E0,1.148216057E1,1.870067397E1
3.473373600E0,-1.071189690E1,9.030338287E0,1.162299919E1,1.820400656E1
3.478145787E0,-9.423068047E0,9.326725006E0,1.193867874E1,1.784135816E1
3.482917089E0,-7.799306393E0,9.760465622E0,1.238862801E1,1.759471436E1
3.487687766E0,-5.736325264E0,1.020001888E1,1.280690193E1,1.734827224E1
3.492459120E0,-3.409555912E0,1.083798218E1,1.302025604E1,1.728045129E1
3.497231360E0,-9.820375443E-1,1.170593166E1,1.302284908E1,1.753818212E1
3.502002714E0,1.809218407E0,1.267551231E1,1.292409515E1,1.819269412E1
3.506773339E0,5.107479095E0,1.375227165E1,1.280456829E1,1.947224403E1
3.511544798E0,8.876911163E0,1.511736488E1,1.255310726E1,2.156188245E1
3.516316985E0,1.292430782E1,1.664052391E1,1.209442043E1,2.429443916E1
3.521088339E0,1.667906952E1,1.818340111E1,1.179615402E1,2.734916243E1
3.525858912E0,1.997743988E1,1.944498634E1,1.181748581E1,3.027967254E1
3.530630370E0,2.281090164E1,2.030073357E1,1.203519821E1,3.282229445E1
3.535402558E0,2.548643112E1,2.111933136E1,1.244972420E1,3.536354000E1
3.540173912E0,2.820771408E1,2.209472847E1,1.279207420E1,3.804588443E1
3.544944537E0,3.114854431E1,2.298668289E1,1.297697449E1,4.082917180E1
3.549715995E0,3.464178467E1,2.378494263E1,1.333201694E1,4.408536511E1
3.554488183E0,3.929268646E1,2.498861885E1,1.347832203E1,4.847691663E1
3.559259485E0,4.550661469E1,2.667548370E1,1.305064964E1,5.433923874E1
3.564030110E0,5.358555603E1,2.788366890E1,1.183988571E1,6.155561469E1
3.568801568E0,6.265230560E1,2.802731133E1,1.021483612E1,6.939153013E1
3.573573756E0,6.915750122E1,2.673996162E1,8.129754066E0,7.459140985E1
3.578345110E0,6.949234772E1,2.388028908E1,5.790751457E0,7.370880137E1
3.583115735E0,6.958837128E1,1.930111122E1,3.198804855E0,7.228628268E1
3.587887193E0,6.972196960E1,1.365477371E1,6.168620586E-1,7.104918303E1
3.592659329E0,6.989398193E1,8.197354317E0,-7.551780343E-1,7.037709586E1
3.597430683E0,7.010214233E1,2.137798309E0,-1.887585163E0,7.016012770E1
3.602201308E0,7.007485962E1,-4.170861721E0,-2.705661774E0,7.025099746E1
3.606972766E0,6.523662567E1,-1.012413120E1,-3.280222893E0,6.609898051E1
3.611744954E0,5.857405472E1,-1.567086220E1,-3.787827969E0,6.075231229E1
3.616516308E0,5.225439072E1,-2.066380310E1,-4.015639305E0,5.633506427E1
3.621286933E0,4.622683334E1,-2.503516769E1,-3.817655087E0,5.270914752E1
3.626058391E0,4.069947433E1,-2.870704269E1,-3.378033638E0,4.991946136E1
3.630830527E0,3.536757278E1,-3.189114761E1,-2.711689949E0,4.769972498E1
3.635601881E0,2.997438622E1,-3.452457428E1,-1.775612116E0,4.575546805E1
3.640372506E0,2.470593262E1,-3.653787231E1,-6.924840212E-1,4.411211573E1
3.645143964E0,1.984613609E1,-3.818719101E1,4.262250066E-1,4.303849838E1
3.649916152E0,1.540674591E1,-3.963796234E1,1.441336751E0,4.255130233E1
3.654687506E0,1.156177902E1,-4.056131744E1,1.742984533E0,4.221295064E1
3.659458131E0,8.353069305E0,-4.111702728E1,1.531792045E0,4.198487926E1
3.664229589E0,5.504752159E0,-4.158169556E1,1.310051680E0,4.196493700E1
3.669001725E0,2.893262625E0,-4.249893570E1,1.112483263E0,4.261183079E1
3.673773079E0,7.367846966E-1,-4.367062759E1,6.226485968E-1,4.368128040E1
3.678543704E0,-1.057433128E0,-4.504280472E1,-3.688559532E-1,4.505672510E1
3.683315162E0,-2.280353785E0,-4.647609711E1,-1.772952795E0,4.656577045E1
3.688087350E0,-3.224931240E0,-4.803520966E1,-3.388934374E0,4.826247429E1
3.692858704E0,-4.028180599E0,-4.945294952E1,-4.980699539E0,4.986609894E1
3.697629329E0,-4.767533302E0,-5.064672470E1,-6.323216438E0,5.126210260E1
3.702400683E0,-5.585774422E0,-5.171061707E1,-7.132270813E0,5.249817216E1
3.707172923E0,-6.603531837E0,-5.252537155E1,-7.179012299E0,5.342339850E1
3.711944277E0,-7.930337906E0,-5.277779770E1,-7.086737633E0,5.383872249E1
3.716714902E0,-9.407070160E0,-5.287160492E1,-7.523758888E0,5.422643750E1
3.721486360E0,-1.085180283E1,-5.348619843E1,-8.410079956E0,5.522014570E1
3.726258548E0,-1.223812103E1,-5.449851608E1,-9.263854980E0,5.661871485E1
3.731029902E0,-1.358227062E1,-5.521386719E1,-9.651926041E0,5.767329435E1
3.735800527E0,-1.461118793E1,-5.534197998E1,-9.303886414E0,5.798951512E1
3.740571881E0,-1.514587593E1,-5.530212784E1,-8.380300522E0,5.794784153E1
3.745344120E0,-1.513836002E1,-5.519941711E1,-7.222259521E0,5.769147794E1
3.750115475E0,-1.472448921E1,-5.471775055E1,-5.801554680E0,5.696052005E1
3.754886100E0,-1.398741531E1,-5.386902618E1,-4.370819092E0,5.582673041E1
3.759657558E0,-1.283098221E1,-5.283018494E1,-3.209994078E0,5.446068864E1
3.764429745E0,-1.123960400E1,-5.158251190E1,-2.175789833E0,5.283765980E1
3.769201100E0,-9.321396828E0,-5.030372238E1,-1.411126971E0,5.117952915E1
3.773971725E0,-7.037414551E0,-4.873657227E1,-1.243204117E0,4.925773276E1
3.778743079E0,-4.256263256E0,-4.651023102E1,-1.551674724E0,4.673034411E1
3.783515318E0,-1.152384520E0,-4.396271515E1,-1.879098773E0,4.401794322E1
3.788286673E0,1.767086506E0,-4.136260986E1,-2.139528275E0,4.145558672E1
3.793057298E0,4.611638546E0,-3.881351852E1,-2.535180569E0,3.916865546E1
3.797828756E0,7.562700272E0,-3.598489380E1,-3.154084206E0,3.690603290E1
3.802600943E0,1.042149162E1,-3.281806183E1,-3.919519663E0,3.465537915E1
3.807372298E0,1.294092751E1,-2.961370087E1,-4.883875847E0,3.268472314E1
3.812142923E0,1.502829170E1,-2.649030304E1,-5.795590401E0,3.100281559E1
3.816914277E0,1.656281853E1,-2.360120773E1,-6.700139046E0,2.960128084E1
3.821686516E0,1.747772598E1,-2.107039452E1,-7.387799263E0,2.835510551E1
3.826457870E0,1.784883690E1,-1.904003143E1,-7.838243008E0,2.724962071E1
3.831228495E0,1.794041824E1,-1.748126411E1,-8.156726837E0,2.634360253E1
3.835999954E0,1.800704384E1,-1.618056488E1,-8.150804520E0,2.554407802E1
3.840772141E0,1.814564514E1,-1.505578995E1,-7.825479984E0,2.484309533E1
3.845543495E0,1.865026283E1,-1.373561382E1,-7.606300831E0,2.437940121E1
3.850314120E0,1.956216431E1,-1.201431179E1,-7.535462856E0,2.416206036E1
3.855085475E0,2.068095970E1,-1.005607605E1,-7.190497398E0,2.409419043E1
3.859857714E0,2.216951942E1,-8.146035194E0,-6.329949379E0,2.445227474E1
3.864629068E0,2.407128906E1,-6.181982040E0,-4.950209618E0,2.534064787E1
3.869399693E0,2.655649948E1,-3.876121283E0,-2.965626955E0,2.700123931E1
3.874171152E0,2.990913773E1,-1.323817730E0,-3.414809704E-1,2.994036777E1
3.878943339E0,3.435662460E1,1.230673552E0,2.327768564E0,3.445737538E1
3.883714693E0,3.945612335E1,4.051951885E0,4.257091045E0,3.989143778E1
3.888485318E0,4.410995483E1,7.362541199E0,5.342123032E0,4.503813281E1
3.893256777E0,4.775229645E1,1.042949009E1,5.830885887E0,4.922453971E1
3.898028912E0,4.995682907E1,1.295292759E1,6.029042244E0,5.195971954E1
3.902800266E0,5.056825638E1,1.485653973E1,6.241677284E0,5.307375869E1
3.907570891E0,4.963273621E1,1.611765289E1,6.544523239E0,5.259294651E1
3.912342350E0,4.819866943E1,1.680762482E1,7.005645752E0,5.152365534E1
3.917114537E0,4.683301544E1,1.737845612E1,7.455827713E0,5.050674647E1
3.921885891E0,4.568895721E1,1.798930550E1,7.666551590E0,4.969780616E1
3.926656516E0,4.485232925E1,1.860002518E1,7.831093788E0,4.918351763E1
3.931427870E0,4.374335098E1,1.922872543E1,7.761714935E0,4.840938809E1
3.936200110E0,4.200249863E1,1.978059959E1,7.204772949E0,4.698287735E1
3.940971464E0,3.977495575E1,2.005073738E1,6.238463402E0,4.497774561E1
3.945742089E0,3.718133926E1,1.979097366E1,4.925365448E0,4.240747402E1
3.950513548E0,3.433692932E1,1.884173775E1,3.473006010E0,3.932044719E1
3.955285735E0,3.132583809E1,1.737619400E1,2.026857853E0,3.587963772E1
3.960057089E0,2.805297661E1,1.566822052E1,6.945302486E-1,3.213946177E1
3.964827714E0,2.473986053E1,1.394577217E1,-6.916382313E-1,2.840816122E1
3.969599173E0,2.152986908E1,1.232179356E1,-2.131696701E0,2.489791136E1
3.974371308E0,1.850941086E1,1.085431004E1,-3.361505270E0,2.171897913E1
3.979142662E0,1.576740837E1,9.510444641E0,-4.188774109E0,1.888400256E1
3.983913287E0,1.324225044E1,8.348403931E0,-4.612440109E0,1.631954806E1
3.988684745E0,1.105690861E1,7.342589855E0,-4.628136635E0,1.405661775E1
3.993456933E0,9.135873795E0,6.527585506E0,-4.362711430E0,1.204602895E1
3.998228287E0,7.358229637E0,5.961747646E0,-3.785064936E0,1.019866143E1
4.002998912E0,5.648674011E0,5.612845898E0,-3.169943571E0,8.570886734E0
4.007770370E0,4.058777809E0,5.376767635E0,-2.580702066E0,7.214106366E0
4.012542506E0,2.658942223E0,5.178089142E0,-2.037801266E0,6.167269647E0
4.017313860E0,1.480696678E0,5.029084206E0,-1.495741606E0,5.451733078E0
4.022084485E0,5.312299728E-1,4.889207363E0,-8.766465187E-1,4.995504283E0
4.026855943E0,-2.688350677E-1,4.892264366E0,-1.472687721E-1,4.901857914E0
4.031628131E0,-9.345664978E-1,4.977999687E0,6.597435474E-1,5.107754592E0
4.036399485E0,-1.480911255E0,5.081464767E0,1.421079278E0,5.480314648E0
4.041170110E0,-2.008904457E0,5.225986958E0,2.147287846E0,5.996455777E0
4.045941568E0,-2.490224361E0,5.303744793E0,2.877745628E0,6.527813271E0
4.050713704E0,-2.882162571E0,5.431847095E0,3.671058178E0,7.161598432E0
4.055485058E0,-3.285391808E0,5.634320259E0,4.464176655E0,7.903685047E0
4.060255683E0,-3.628072262E0,5.829834938E0,5.089828014E0,8.547293897E0
4.065027141E0,-3.876660824E0,5.968308926E0,5.481585503E0,8.983150349E0
4.069799329E0,-4.119726658E0,6.080671787E0,5.785462856E0,9.349775269E0
4.074570683E0,-4.419349194E0,6.123846531E0,5.903700829E0,9.585709525E0
4.079341308E0,-4.780078411E0,6.150382042E0,5.717464447E0,9.662595334E0
4.084112766E0,-5.065329552E0,6.093288898E0,5.280565739E0,9.522085254E0
4.088884954E0,-5.287012100E0,6.107538700E0,4.842556953E0,9.418327015E0
4.093656256E0,-5.521538258E0,6.121141911E0,4.358766079E0,9.324945295E0
4.098426881E0,-5.890760422E0,6.188678265E0,3.898851871E0,9.391583622E0
4.103198339E0,-6.317881584E0,6.209441185E0,3.326898575E0,9.462612835E0
4.107970527E0,-6.773882866E0,6.147298813E0,2.560590267E0,9.499020702E0
4.112741881E0,-7.196203232E0,6.004811287E0,1.635689616E0,9.514125292E0
4.117512506E0,-7.751955032E0,5.934898853E0,7.909790277E-1,9.794972131E0
4.122283964E0,-8.385783195E0,5.975322723E0,4.890227318E-2,1.029700116E1
4.127056152E0,-9.049613953E0,6.065629959E0,-5.208282471E-1,1.090681629E1
4.131827454E0,-9.671530724E0,6.119326115E0,-9.851756096E-1,1.148717675E1
4.136598131E0,-1.028254128E1,6.126910686E0,-1.353875279E0,1.204585688E1
4.141369485E0,-1.100938797E1,6.131488323E0,-1.410620332E0,1.268036365E1
4.146141725E0,-1.193356228E1,6.143369198E0,-1.029740691E0,1.346147316E1
4.150913079E0,-1.295983028E1,6.092036247E0,-2.187862396E-1,1.432194030E1
4.155683704E0,-1.385204887E1,5.938385010E0,5.894919634E-1,1.508281059E1
4.160455162E0,-1.453920937E1,5.820115089E0,1.246310472E0,1.571036723E1
4.165227350E0,-1.513672447E1,5.800226212E0,1.948437929E0,1.632664884E1
4.169998704E0,-1.567364407E1,5.786011219E0,2.634910345E0,1.691401184E1
4.174769329E0,-1.616929436E1,5.677643299E0,3.264715195E0,1.744534548E1
4.179540683E0,-1.661412811E1,5.568855286E0,3.773660898E0,1.792433872E1
4.184312923E0,-1.703204536E1,5.467501640E0,4.201255322E0,1.837483850E1
4.189084277E0,-1.734636497E1,5.316696644E0,4.446739197E0,1.867985895E1
4.193854902E0,-1.765013885E1,5.224228859E0,4.481968880E0,1.894486774E1
4.198626360E0,-1.798124695E1,5.309234619E0,4.460639954E0,1.927201398E1
4.203398548E0,-1.830104446E1,5.501681328E0,4.485816956E0,1.962955118E1
4.208169902E0,-1.841819382E1,5.588683605E0,4.614103317E0,1.979275618E1
4.212940527E0,-1.829479027E1,5.627870560E0,4.869890690E0,1.975064843E1
4.217711985E0,-1.807472229E1,5.836710930E0,5.281149864E0,1.971429238E1
4.222484120E0,-1.782515526E1,6.085670471E0,5.811185837E0,1.971145418E1
4.227255475E0,-1.743862152E1,6.279079437E0,6.242323875E0,1.955758079E1
4.232026100E0,-1.694662666E1,6.493998528E0,6.584393978E0,1.930581302E1
4.236797558E0,-1.641685295E1,6.717266560E0,6.956310272E0,1.905321452E1
4.241569745E0,-1.587653160E1,6.912289619E0,7.312952518E0,1.879689544E1
4.246341100E0,-1.506816101E1,7.185448647E0,7.410235882E0,1.826449409E1
4.251111725E0,-1.387762642E1,7.515373230E0,7.148283005E0,1.732533693E1
4.255883183E0,-1.219541168E1,7.997354507E0,6.842133522E0,1.610902034E1
4.260655370E0,-1.014389896E1,8.731086731E0,6.770733356E0,1.499911304E1
4.265426725E0,-7.735298634E0,9.577140808E0,7.200205803E0,1.426181737E1
4.270197298E0,-4.708838940E0,1.055581474E1,8.115689278E0,1.412313002E1
4.274968756E0,-9.302482605E-1,1.174868298E1,9.118367195E0,1.490105814E1
4.279740943E0,3.431519508E0,1.326485252E1,1.022745991E1,1.709773595E1
4.284512298E0,7.978332520E0,1.494053650E1,1.177923107E1,2.063064966E1
4.289282923E0,1.214462662E1,1.677111435E1,1.368280315E1,2.481897126E1
4.294054381E0,1.582878590E1,1.903738785E1,1.573483086E1,2.933526037E1
4.298826568E0,1.938537407E1,2.154706001E1,1.821815681E1,3.423404388E1
4.303597923E0,2.337572861E1,2.361169052E1,2.088467026E1,3.924418516E1
4.308368548E0,2.799382401E1,2.462613297E1,2.354517174E1,4.409620981E1
4.313140006E0,3.357046127E1,2.451780701E1,2.599367523E1,4.902825596E1
4.317912141E0,4.015145874E1,2.390640068E1,2.784665680E1,5.439753604E1
4.322683495E0,4.688834381E1,2.329006577E1,2.881356049E1,5.975922704E1
4.327454120E0,5.326182175E1,2.256322289E1,2.865914917E1,6.455437641E1
4.332225579E0,5.888357925E1,2.123524284E1,2.729345131E1,6.828721644E1
4.336997766E0,6.354315186E1,1.894163704E1,2.483227730E1,7.080367051E1
4.341769120E0,6.691716003E1,1.576511574E1,2.167638016E1,7.208543985E1
4.346539745E0,6.874304962E1,1.207365799E1,1.797707176E1,7.207326271E1
4.351311204E0,6.888911438E1,8.058444977E0,1.415489388E1,7.078848519E1
4.356083391E0,6.694631958E1,3.798130035E0,1.047555637E1,6.786731745E1
4.360854693E0,6.282175064E1,-7.322635651E-1,7.686244011E0,6.329444613E1
4.365625318E0,5.728386688E1,-5.459159851E0,5.468489170E0,5.780266607E1
4.370396777E0,5.117285919E1,-9.705240250E0,4.005536556E0,5.223885077E1
4.375168964E0,4.513852692E1,-1.349199581E1,3.696884871E0,4.725661352E1
4.379940318E0,3.983968353E1,-1.697755432E1,4.126564980E0,4.350248583E1
4.384710943E0,3.544095612E1,-2.014608574E1,5.037680149E0,4.107681052E1
4.389482402E0,3.178530121E1,-2.289997864E1,6.187142849E0,3.966100265E1
4.394254589E0,2.864529800E1,-2.513094330E1,7.208711624E0,3.878250807E1
4.399025943E0,2.593806076E1,-2.695862007E1,8.055986404E0,3.826812132E1
4.403796568E0,2.333296204E1,-2.840508652E1,8.875177383E0,3.781593356E1
4.408568027E0,2.077253342E1,-2.964796066E1,9.439976692E0,3.741140035E1
4.413340162E0,1.825601196E1,-3.084494400E1,9.654990196E0,3.712022870E1
4.418111516E0,1.590912628E1,-3.196654129E1,9.386277199E0,3.691967309E1
4.422882141E0,1.366607285E1,-3.308784485E1,8.738200188E0,3.685000904E1
4.427653600E0,1.149191284E1,-3.424002075E1,7.929842472E0,3.697736447E1
4.432425787E0,9.555286407E0,-3.536757278E1,7.292262077E0,3.735432758E1
4.437197141E0,7.879179478E0,-3.645778656E1,6.836776733E0,3.792088061E1
4.441967766E0,6.501680374E0,-3.737352371E1,6.200312614E0,3.843821014E1
4.446739225E0,5.469218254E0,-3.791823959E1,5.260151386E0,3.867007156E1
4.451511412E0,4.659297943E0,-3.815164185E1,3.994833469E0,3.864214703E1
4.456282766E0,3.995061398E0,-3.813349152E1,2.543440580E0,3.842645938E1
4.461053339E0,3.031148434E0,-3.789987946E1,1.218492031E0,3.804041859E1
4.465824798E0,1.641829014E0,-3.754198837E1,1.406582594E-1,3.757813564E1
4.470596985E0,1.557397842E-2,-3.708644867E1,-7.092895508E-1,3.709323401E1
4.475368339E0,-1.658027649E0,-3.668676376E1,-1.480374455E0,3.675403651E1
4.480138964E0,-3.386101246E0,-3.636264038E1,-2.420490980E0,3.660008297E1
4.484910423E0,-5.108336449E0,-3.597640991E1,-3.644855976E0,3.651961318E1
4.489682610E0,-6.912645340E0,-3.553681946E1,-4.967382908E0,3.654210032E1
4.494453964E0,-8.678966522E0,-3.510530472E1,-6.170683861E0,3.668493176E1
4.499224589E0,-1.025348282E1,-3.462139893E1,-7.029659748E0,3.678574846E1
4.503996048E0,-1.167348385E1,-3.405315399E1,-7.533318996E0,3.677823292E1
4.508768183E0,-1.300256157E1,-3.336825562E1,-7.610036850E0,3.661174335E1
4.513539537E0,-1.427997971E1,-3.257461548E1,-7.416768551E0,3.633224256E1
4.518310162E0,-1.515673542E1,-3.150541306E1,-7.052487373E0,3.566588368E1
4.523081620E0,-1.562012768E1,-3.026896095E1,-6.699291229E0,3.471424619E1
4.527853808E0,-1.576419830E1,-2.890394974E1,-6.270853996E0,3.351524830E1
4.532625162E0,-1.580192566E1,-2.754951859E1,-5.867835045E0,3.229718745E1
4.537395787E0,-1.575998306E1,-2.630860519E1,-5.533779144E0,3.116315910E1
4.542167245E0,-1.563926125E1,-2.525274277E1,-5.204827785E0,3.015589067E1
4.546939433E0,-1.549157333E1,-2.438859940E1,-4.834206104E0,2.929440516E1
4.551710787E0,-1.529242134E1,-2.358885574E1,-4.480613708E0,2.846696621E1
4.556481412E0,-1.504157257E1,-2.269980621E1,-3.996881008E0,2.752281173E1
4.561252870E0,-1.467649841E1,-2.168769455E1,-3.473210573E0,2.641626189E1
4.566025006E0,-1.409825897E1,-2.044967270E1,-2.970981359E0,2.501553017E1
4.570796360E0,-1.338438797E1,-1.903165817E1,-2.432209015E0,2.339362081E1
4.575566985E0,-1.247132492E1,-1.756804657E1,-1.904258966E0,2.162860161E1
4.580338443E0,-1.127463341E1,-1.622408867E1,-1.298457384E0,1.979960614E1
4.585110631E0,-9.964061737E0,-1.498797798E1,-4.935674667E-1,1.800459994E1
4.589881985E0,-8.639943123E0,-1.372143745E1,5.303862095E-1,1.622367938E1
4.594652610E0,-7.309465408E0,-1.235587883E1,1.524878860E0,1.443680303E1
4.599424068E0,-5.876853943E0,-1.098323154E1,2.332177162E0,1.267311476E1
4.604196256E0,-4.468930721E0,-9.614089966E0,2.873265743E0,1.098443097E1
4.608967610E0,-3.162434101E0,-8.309130669E0,3.231512785E0,9.459667901E0
4.613738183E0,-2.144088507E0,-7.221931458E0,3.334906816E0,8.238629314E0
4.618509693E0,-1.476130962E0,-6.430834770E0,3.203933001E0,7.334833681E0
4.623281829E0,-1.130322218E0,-6.062590599E0,2.752010345E0,6.753235819E0
4.628053183E0,-1.049129963E0,-5.904407501E0,2.576545954E0,6.526966422E0
4.632823808E0,-1.093757153E0,-5.605306625E0,3.289588928E0,6.590687551E0
4.637595266E0,-8.888506889E-1,-4.819205284E0,4.206333160E0,6.458175731E0
4.642367454E0,-4.636240005E-2,-3.239400864E0,5.304215431E0,6.215349449E0
4.647138808E0,2.228029728E0,-7.886056900E-1,6.370327950E0,6.794637120E0
4.651909433E0,6.569061756E0,2.456477165E0,7.211811543E0,1.005967585E1
4.656680891E0,1.302220345E1,6.194842815E0,7.684711933E0,1.634039955E1
4.661453079E0,2.118109894E1,9.817951202E0,8.158875465E0,2.473051489E1
4.666224433E0,2.998230362E1,1.266317940E1,8.825249672E0,3.372209475E1
4.670995058E0,3.813442230E1,1.465487671E1,9.827239037E0,4.201873633E1
4.675766412E0,4.472574234E1,1.617794228E1,1.132523727E1,4.889150073E1
4.680538652E0,4.923131943E1,1.726941109E1,1.280468559E1,5.372071616E1
4.685310006E0,5.157682419E1,1.773671150E1,1.396699715E1,5.630130316E1
4.690080631E0,5.206798935E1,1.728063774E1,1.479990101E1,5.682194141E1
4.694852089E0,5.079983521E1,1.601148605E1,1.547112942E1,5.546482478E1
4.699624277E0,4.806426620E1,1.435200977E1,1.584062862E1,5.260303590E1
4.704395631E0,4.446109009E1,1.253599548E1,1.567260838E1,4.878084017E1
4.709166256E0,4.068103790E1,1.070331478E1,1.475355530E1,4.457774317E1
4.713937714E0,3.706381607E1,8.851667404E0,1.339574528E1,4.039213375E1
4.718709902E0,3.365319443E1,6.995122910E0,1.195276642E1,3.639145318E1
4.723481256E0,3.040745544E1,5.217015266E0,1.029591656E1,3.252439842E1
4.728251829E0,2.727347755E1,3.705490112E0,8.399242401E0,2.877708303E1
4.733023287E0,2.419595718E1,2.339731693E0,6.209486008E0,2.508936836E1
4.737795475E0,2.117230606E1,1.082412243E0,3.781479836E0,2.153457104E1
4.742566829E0,1.806330872E1,-1.063427925E-1,1.373193264E0,1.811574151E1
4.747337454E0,1.492079353E1,-1.242701054E0,-8.029110432E-1,1.499396718E1
4.752108912E0,1.176944637E1,-2.416674376E0,-2.612998962E0,1.229585079E1
4.756881100E0,8.657273293E0,-3.505308628E0,-4.020829678E0,1.016870890E1
4.761652454E0,5.682096481E0,-4.460223675E0,-4.980222702E0,8.773963404E0
4.766423079E0,2.884368896E0,-5.264544010E0,-5.663580418E0,8.252948001E0
4.771194537E0,4.531917572E-1,-5.889831543E0,-6.227088928E0,8.583247340E0
4.775966725E0,-1.603970528E0,-6.329416752E0,-6.577252388E0,9.267927862E0
4.780738079E0,-3.317610264E0,-6.485736370E0,-6.646153450E0,9.861169799E0
4.785508704E0,-4.533165932E0,-6.773680210E0,-6.553849220E0,1.045874163E1
4.790280058E0,-5.401595116E0,-6.828828812E0,-6.733255386E0,1.100667347E1
4.795052298E0,-6.171422005E0,-6.686521530E0,-6.743803024E0,1.132585092E1
4.799823652E0,-6.682083607E0,-6.513090611E0,-6.621350288E0,1.144171623E1
4.804594277E0,-6.964353085E0,-6.363924026E0,-6.403025627E0,1.140177530E1
4.809365735E0,-7.165833950E0,-6.110077858E0,-6.036902428E0,1.118599207E1
4.814137923E0,-7.374042988E0,-5.768630028E0,-5.502260208E0,1.085948755E1
4.818909277E0,-7.509043694E0,-5.411387920E0,-4.888355732E0,1.046732431E1
4.823679902E0,-7.620291233E0,-5.140621185E0,-4.279302597E0,1.013939127E1
4.828451360E0,-7.750190258E0,-4.938848972E0,-3.656813145E0,9.890902920E0
4.833223548E0,-7.869349957E0,-4.748078823E0,-3.076935053E0,9.692185025E0
4.837994902E0,-8.060857773E0,-4.665717602E0,-2.543023825E0,9.654704498E0
4.842765527E0,-8.412440300E0,-4.538128853E0,-2.036903620E0,9.773062040E0
4.847536985E0,-8.870750427E0,-4.269159794E0,-1.440023661E0,9.949352071E0
4.852309120E0,-9.251204491E0,-4.104378223E0,-7.366288900E-1,1.014757741E1
4.857080475E0,-9.489021301E0,-4.042804241E0,-1.187927723E-1,1.031503287E1
4.861851100E0,-9.660344124E0,-4.009722710E0,4.113518000E-1,1.046753720E1
4.866622558E0,-9.867467880E0,-3.906938553E0,7.612947226E-1,1.064004985E1
4.871394745E0,-1.000483704E1,-3.679292440E0,1.084969282E0,1.071499488E1
4.876166100E0,-1.007958794E1,-3.381936073E0,1.415890455E0,1.072568554E1
4.880936725E0,-1.019699287E1,-3.051101923E0,1.669545174E0,1.077382326E1
4.885708183E0,-1.025895214E1,-2.802079439E0,1.828511238E0,1.079079244E1
4.890480370E0,-1.024150944E1,-2.597406149E0,1.848964691E0,1.072630900E1
4.895251725E0,-1.023071861E1,-2.447651863E0,1.768778205E0,1.066710735E1
4.900022350E0,-1.020984650E1,-2.324990749E0,1.563702345E0,1.058733737E1
4.904793808E0,-1.024133873E1,-2.206008911E0,1.424883604E0,1.057269065E1
4.909565995E0,-1.039723396E1,-2.074314833E0,1.425827503E0,1.069758104E1
4.914337298E0,-1.068735123E1,-1.882309675E0,1.486766100E0,1.095322050E1
4.919107923E0,-1.095883274E1,-1.649424076E0,1.594855905E0,1.119643605E1
4.923879381E0,-1.109952164E1,-1.483591795E0,1.722154737E0,1.132988271E1
4.928651568E0,-1.117907906E1,-1.277216911E0,1.986939788E0,1.142589258E1
4.933422923E0,-1.116643906E1,-1.013842106E0,2.399854660E0,1.146632197E1
4.938193548E0,-1.112140846E1,-8.777642250E-1,2.489503145E0,1.143039029E1
4.942965006E0,-1.116347504E1,-9.046792984E-1,2.127528191E0,1.140035068E1
4.947737193E0,-1.136419201E1,-9.028129578E-1,1.826540589E0,1.154539656E1
4.952508548E0,-1.159900093E1,-8.668892384E-1,1.573522806E0,1.173730350E1
4.957279173E0,-1.172900009E1,-8.372702599E-1,1.097757339E0,1.180997611E1
4.962050631E0,-1.191436672E1,-7.250003815E-1,6.859505773E-1,1.195609837E1
4.966822818E0,-1.211197853E1,-6.131217480E-1,4.580390453E-1,1.213613373E1
4.971594173E0,-1.226926327E1,-5.560407639E-1,3.771561384E-1,1.228764620E1
4.976364798E0,-1.232184029E1,-6.583664417E-1,2.347217202E-1,1.234164854E1
4.981136256E0,-1.221726513E1,-8.096125126E-1,-2.087396383E-2,1.224407920E1
4.985908443E0,-1.205127048E1,-8.211088181E-1,-1.186517477E-1,1.207979380E1
4.990679745E0,-1.190285301E1,-7.508339882E-1,7.514250278E-2,1.192674758E1
4.995450423E0,-1.176269531E1,-6.327879429E-1,6.024057865E-1,1.179509705E1
5.000221777E0,-1.155240059E1,-4.792454243E-1,1.280307770E0,1.163300578E1
5.004994016E0,-1.128704262E1,-3.959455490E-1,2.093293190E0,1.148633886E1
5.009765370E0,-1.114431477E1,-3.879718781E-1,2.775616407E0,1.149131499E1
5.014535995E0,-1.106478214E1,-3.910381794E-1,3.335809469E0,1.156330141E1
5.019307454E0,-1.101302433E1,-4.289815426E-1,3.792667389E0,1.165568771E1
5.024079641E0,-1.089141846E1,-4.992513657E-1,4.224971771E0,1.169284544E1
5.028850995E0,-1.061665630E1,-5.896065235E-1,4.513625145E0,1.155135658E1
5.033621620E0,-1.029621601E1,-6.329820156E-1,4.491663933E0,1.125112329E1
5.038393079E0,-1.008965588E1,-5.478525162E-1,4.247557640E0,1.096097824E1
5.043165266E0,-9.946309090E0,-4.191992283E-1,4.369125366E0,1.087170865E1
5.047936620E0,-9.859463692E0,-3.805861473E-1,5.138497829E0,1.112465865E1
5.052707245E0,-9.603148460E0,-4.706010818E-1,6.471016407E0,1.158947708E1
5.057478704E0,-8.854146004E0,-5.428602695E-1,8.383786201E0,1.220567367E1
5.062250891E0,-7.373399258E0,-5.781114101E-1,1.075862026E1,1.305561716E1
5.067022245E0,-5.177534103E0,-5.316288471E-1,1.314239883E1,1.413549206E1
5.071792818E0,-2.308291912E0,-1.191027164E-1,1.493977451E1,1.511751499E1
5.076564329E0,1.413863182E0,6.660263538E-1,1.596528912E1,1.604160393E1
5.081336464E0,6.102764130E0,1.951768160E0,1.636499023E1,1.757458490E1
5.086107818E0,1.143685532E1,3.742720366E0,1.626616287E1,2.023357778E1
5.090878443E0,1.699686813E1,5.732218742E0,1.587267971E1,2.395190638E1
5.095649902E0,2.259319687E1,7.671021461E0,1.529668617E1,2.834229565E1
5.100422089E0,2.809588623E1,9.588981628E0,1.464456940E1,3.310273107E1
5.105193443E0,3.310173798E1,1.130797958E1,1.406457996E1,3.770156322E1
5.109964068E0,3.743207550E1,1.268734074E1,1.359961700E1,4.179806782E1
5.114735527E0,4.110826111E1,1.344042587E1,1.339899635E1,4.527766869E1
5.119507714E0,4.411068726E1,1.364540672E1,1.335362816E1,4.806526022E1
5.124279068E0,4.654438400E1,1.364314938E1,1.324071884E1,5.027754810E1
5.129049693E0,4.841684723E1,1.366806412E1,1.292091465E1,5.194186277E1
5.133821152E0,4.939386749E1,1.365565777E1,1.246880245E1,5.274184458E1
5.138593339E0,4.928038406E1,1.334890461E1,1.197602367E1,5.244210761E1
5.143364693E0,4.790306854E1,1.256462383E1,1.142678928E1,5.082465210E1
5.148135318E0,4.542600250E1,1.139146805E1,1.086319923E1,4.807594352E1
5.152906777E0,4.232416153E1,9.914307594E0,1.005347633E1,4.461726718E1
5.157678912E0,3.888299942E1,8.253684044E0,9.079196930E0,4.077306416E1
5.162450266E0,3.525626373E1,6.512463570E0,8.002799988E0,3.673501221E1
5.167220943E0,3.163340950E1,4.890223980E0,6.807384491E0,3.272502667E1
5.171992298E0,2.804807281E1,3.526047707E0,5.680533409E0,2.883393592E1
5.176764537E0,2.441897583E1,2.348279953E0,4.610540867E0,2.496112751E1
5.181535891E0,2.077482605E1,1.264630079E0,3.686222076E0,2.113719281E1
5.186306516E0,1.712266731E1,1.743209362E-1,2.941616058E0,1.737438427E1
5.191077975E0,1.363199615E1,-8.528850079E-1,2.387059689E0,1.386566933E1
5.195850162E0,1.041456985E1,-1.770936608E0,1.898865938E0,1.073336730E1
5.200621516E0,7.615547180E0,-2.542006969E0,1.496668816E0,8.166907360E0
5.205392141E0,5.224564552E0,-3.060000896E0,1.125542164E0,6.158451543E0
5.210163600E0,3.310363770E0,-3.384897709E0,8.287307024E-1,4.806540894E0
5.214935787E0,1.745577812E0,-3.557933092E0,5.917059183E-1,4.006999586E0
5.219707141E0,4.724950790E-1,-3.604117393E0,4.742094278E-1,3.665758907E0
5.224477766E0,-5.115976334E-1,-3.720371723E0,3.705847263E-1,3.773623052E0
5.229249225E0,-1.431799889E0,-3.948069572E0,2.561461926E-1,4.207483231E0
5.234021412E0,-2.280932426E0,-4.127795696E0,1.708530188E-1,4.719167384E0
5.238792766E0,-3.114008427E0,-4.308037758E0,1.624131203E-2,5.315684489E0
5.243563391E0,-4.016984940E0,-4.329340935E0,-2.795480490E-1,5.912487467E0
5.248334850E0,-4.946612835E0,-4.324012756E0,-5.085505247E-1,6.589741155E0
5.253107037E0,-5.921917915E0,-4.265995026E0,-7.330591679E-1,7.335202867E0
5.257878339E0,-6.847262383E0,-4.246042252E0,-9.200520515E-1,8.109276954E0
5.262649016E0,-7.708427429E0,-4.216053963E0,-1.057981133E0,8.849536063E0
5.267420475E0,-8.577343941E0,-4.144787788E0,-1.231451988E0,9.605548859E0
5.272192610E0,-9.509060860E0,-3.903407097E0,-1.355536699E0,1.036804249E1
5.276963964E0,-1.042234039E1,-3.547058821E0,-1.371791959E0,1.109453103E1
5.281734589E0,-1.137006664E1,-3.264224052E0,-1.231317759E0,1.189326354E1
5.286506048E0,-1.225219536E1,-3.099194765E0,-9.739615917E-1,1.267556312E1
5.291278235E0,-1.287551403E1,-2.989057541E0,-5.516216755E-1,1.322942225E1
5.296049589E0,-1.335785198E1,-2.887861967E0,-2.153396606E-2,1.366647065E1
5.300820214E0,-1.368033981E1,-2.714664936E0,4.084110260E-1,1.395306069E1
5.305591673E0,-1.389331055E1,-2.546458006E0,7.153903246E-1,1.414285366E1
5.310363860E0,-1.393922615E1,-2.371767044E0,9.468053579E-1,1.417122948E1
5.315135214E0,-1.382254124E1,-2.138664484E0,1.012432814E0,1.402360696E1
5.319905839E0,-1.365281582E1,-1.843079805E0,9.231705666E-1,1.380755470E1
5.324677298E0,-1.348207474E1,-1.640957832E0,7.312295437E-1,1.360124180E1
5.329449485E0,-1.335517025E1,-1.486804724E0,5.593783855E-1,1.344931466E1
5.334220839E0,-1.320461273E1,-1.354241371E0,4.471755624E-1,1.328140554E1
5.338991464E0,-1.303012085E1,-1.219375372E0,5.002057552E-1,1.309660763E1
5.343762923E0,-1.278131485E1,-1.039297819E0,5.816348791E-1,1.283668370E1
5.348535110E0,-1.250851154E1,-8.952047825E-1,7.452661991E-1,1.256263007E1
5.353306464E0,-1.229308128E1,-8.108973503E-1,1.008149981E0,1.236097765E1
5.358077089E0,-1.219242287E1,-7.144153118E-1,1.238930106E0,1.227601370E1
5.362848548E0,-1.223518181E1,-6.438915730E-1,1.440451980E0,1.233649756E1
5.367620735E0,-1.228041840E1,-5.747480392E-1,1.565891027E0,1.239318466E1
5.372392089E0,-1.229276848E1,-5.681977272E-1,1.628211498E0,1.241314135E1
5.377162714E0,-1.244252586E1,-5.516409874E-1,1.721249342E0,1.257312439E1
5.381934173E0,-1.262236500E1,-4.790713787E-1,1.663940907E0,1.274057718E1
5.386706360E0,-1.266790581E1,-3.759608269E-1,1.424306989E0,1.275326760E1
5.391477662E0,-1.248681831E1,-2.007198334E-1,1.073551893E0,1.253448977E1
5.396248339E0,-1.205598068E1,5.409288406E-2,7.353754640E-1,1.207850874E1
5.401019798E0,-1.136148643E1,4.335379601E-1,5.871447921E-1,1.138490528E1
5.405791933E0,-1.041041374E1,9.721155167E-1,5.903645158E-1,1.047235662E1
5.410563287E0,-9.334218025E0,1.546729565E0,6.877997518E-1,9.486467572E0
5.415333964E0,-8.209527016E0,1.838752747E0,5.035234690E-1,8.427982046E0
5.420105318E0,-6.896317482E0,2.465442181E0,7.693167925E-1,7.364064658E0
5.424877558E0,-5.505507469E0,3.106005192E0,9.080054164E-1,6.386106371E0
5.429648912E0,-4.141059399E0,3.677714348E0,1.159955502E0,5.658573366E0
5.434419537E0,-2.890313625E0,4.057834625E0,1.425104856E0,5.181781407E0
5.439190995E0,-1.759385586E0,4.190977573E0,1.596475840E0,4.817516556E0
5.443963183E0,-8.071870804E-1,4.077067375E0,1.768046856E0,4.516638025E0
5.448734537E0,-8.811569214E-2,3.754728794E0,1.850292087E0,4.186804688E0
5.453505162E0,3.503723145E-1,3.258129597E0,1.918653607E0,3.797288624E0
5.458276620E0,4.821634293E-1,2.614500046E0,2.009744644E0,3.332741454E0
5.463048808E0,4.267177582E-1,1.904036522E0,1.993472338E0,2.789511621E0
5.467820162E0,3.627243042E-1,1.123710155E0,1.859927535E0,2.203094158E0
5.472590787E0,2.581844330E-1,2.538056374E-1,1.564256668E0,1.605607495E0
5.477362245E0,1.410984993E-1,-6.778812408E-1,1.306385159E0,1.478537774E0
5.482134433E0,-8.579254150E-3,-1.636315346E0,1.417260289E0,2.164769790E0
5.486905787E0,-8.173799515E-2,-2.581887960E0,1.666396976E0,3.074037316E0
5.491676412E0,-1.846833229E-1,-3.472676277E0,1.784099221E0,3.908528942E0
5.496447870E0,-4.276680946E-1,-4.291716576E0,1.530798793E0,4.576579084E0
5.501220058E0,-8.201131821E-1,-5.134951115E0,7.943364382E-1,5.260349699E0
5.505991412E0,-1.295733452E0,-6.090286255E0,-3.134052455E-2,6.226676005E0
5.510762037E0,-1.624091625E0,-7.220939636E0,-5.840889215E-1,7.424338537E0
5.515533495E0,-1.794809341E0,-8.360852242E0,-9.551312923E-1,8.604502691E0
5.520305683E0,-2.031091690E0,-9.359280586E0,-1.121867418E0,9.642616504E0
5.525077037E0,-2.283154488E0,-1.023546600E1,-1.320512176E0,1.056983023E1
5.529847662E0,-2.642486095E0,-1.117336750E1,-1.660687089E0,1.160106701E1
5.534619120E0,-3.066956520E0,-1.218887138E1,-2.216979027E0,1.276282899E1
5.539391308E0,-3.620114088E0,-1.309416962E1,-2.721048355E0,1.385520148E1
5.544162662E0,-4.356469154E0,-1.404313850E1,-3.139901400E0,1.503487756E1
5.548933287E0,-5.118415833E0,-1.501438141E1,-3.496104717E0,1.624353957E1
5.553704745E0,-5.596026897E0,-1.622536278E1,-3.425382853E0,1.750174740E1
5.558476933E0,-5.845831871E0,-1.785741806E1,-2.556507111E0,1.896303928E1
5.563248287E0,-5.756299496E0,-1.975033188E1,-1.436615467E0,2.062218362E1
5.568018912E0,-5.379688263E0,-2.151548004E1,-4.004567862E-1,2.218146282E1
5.572790370E0,-4.666917801E0,-2.314527893E1,7.895503044E-1,2.362429784E1
5.577562558E0,-3.649878502E0,-2.473947525E1,1.626761556E0,2.506011975E1
5.582333912E0,-2.283162594E0,-2.618951416E1,1.794173717E0,2.635000081E1
5.587104537E0,-5.702023506E-1,-2.743530464E1,1.601838112E0,2.748794203E1
5.591875995E0,1.515172005E0,-2.877817345E1,1.107442856E0,2.883930379E1
5.596648183E0,4.030786037E0,-3.038309097E1,1.346847117E-1,3.064959369E1
5.601419537E0,6.616166592E0,-3.201575851E1,-8.841466308E-1,3.270419192E1
5.606190162E0,8.949522972E0,-3.352590561E1,-2.203191280E0,3.476973339E1
5.610961620E0,1.087660980E1,-3.461267090E1,-4.180373669E0,3.652140676E1
5.615733808E0,1.261378860E1,-3.514062119E1,-6.204596519E0,3.784795818E1
5.620505162E0,1.429290295E1,-3.525614548E1,-8.164519310E0,3.890941074E1
5.625275787E0,1.569844913E1,-3.523864746E1,-1.009137154E1,3.987529761E1
5.630047245E0,1.671503258E1,-3.522488403E1,-1.170675087E1,4.070912410E1
5.634819433E0,1.766501045E1,-3.514992523E1,-1.272909737E1,4.134730654E1
5.639590787E0,1.927526093E1,-3.478237152E1,-1.304398918E1,4.185086267E1
5.644361412E0,2.187155914E1,-3.369328690E1,-1.291768169E1,4.219560619E1
5.649132870E0,2.511058044E1,-3.197635078E1,-1.287021828E1,4.264587645E1
5.653905058E0,2.873748016E1,-3.013339806E1,-1.299613380E1,4.362068246E1
5.658676412E0,3.220010376E1,-2.830039024E1,-1.287274551E1,4.476009771E1
5.663447037E0,3.498606873E1,-2.642117500E1,-1.229427433E1,4.553298447E1
5.668218495E0,3.702484131E1,-2.460366440E1,-1.167567921E1,4.596194796E1
5.672990683E0,3.825253677E1,-2.302638245E1,-1.130078316E1,4.605625428E1
5.677762037E0,3.892768860E1,-2.179380608E1,-1.093425560E1,4.593357017E1
5.682532662E0,3.941854858E1,-2.032814598E1,-1.071679688E1,4.562789965E1
5.687304120E0,3.958850861E1,-1.838943672E1,-1.101804256E1,4.502020278E1
5.692076308E0,3.925354767E1,-1.613209534E1,-1.141967487E1,4.394877107E1
5.696847662E0,3.846719742E1,-1.403095627E1,-1.131528091E1,4.248092034E1
5.701618287E0,3.772628403E1,-1.228567696E1,-1.041043949E1,4.101935659E1
5.706389745E0,3.805366898E1,-1.041011047E1,-8.578956604E0,4.037388536E1
5.711161933E0,3.964032745E1,-7.744967937E0,-5.861081123E0,4.081289454E1
5.715933287E0,4.200984573E1,-4.296887398E0,-2.664747715E0,4.231301526E1
5.720703912E0,4.509500504E1,-7.028126717E-1,2.780953646E-1,4.510133880E1
5.725475370E0,4.850345612E1,3.078225851E0,2.371981621E0,4.865888435E1
5.730247558E0,5.134143066E1,7.143434525E0,3.804960489E0,5.197546425E1
5.735018912E0,5.315836716E1,1.100084305E1,4.675693512E0,5.448571057E1
5.739789537E0,5.374073029E1,1.412208652E1,4.898072243E0,5.578073620E1
5.744560995E0,5.259115219E1,1.657496834E1,4.431295395E0,5.531903147E1
5.749333183E0,4.968263626E1,1.844890213E1,3.541827202E0,5.311563683E1
5.754104537E0,4.579016495E1,1.967356491E1,2.548953533E0,4.990276071E1
5.758875162E0,4.121113205E1,2.062968636E1,1.881700635E0,4.612463725E1
5.763646620E0,3.651461411E1,2.182312584E1,1.506906152E0,4.256567433E1
5.768418808E0,3.229193115E1,2.309286499E1,1.093266129E0,3.971453716E1
5.773190162E0,2.885012627E1,2.449376297E1,7.319052219E-1,3.785247542E1
5.777960787E0,2.637699509E1,2.604989243E1,4.222207069E-1,3.707453352E1
5.782732245E0,2.476696396E1,2.786277008E1,2.874109745E-1,3.728027716E1
5.787504433E0,2.382942200E1,2.964521408E1,2.849805355E-1,3.803631534E1
5.792275787E0,2.334479523E1,3.112439728E1,3.035392761E-1,3.890757903E1
5.797046412E0,2.303661537E1,3.221172333E1,1.068539619E-1,3.960166897E1
5.801817870E0,2.275397301E1,3.309399414E1,-2.475552559E-1,4.016238314E1
5.806590058E0,2.234407806E1,3.397679901E1,-5.794894695E-1,4.066960171E1
5.811361412E0,2.149238586E1,3.487250519E1,-5.731580257E-1,4.096758204E1
5.816132037E0,2.008860207E1,3.562909317E1,-2.581529617E-1,4.090294434E1
5.820903495E0,1.817400742E1,3.611243820E1,4.233331680E-1,4.042996351E1
5.825675683E0,1.573613358E1,3.628526306E1,1.452312708E0,3.957720844E1
5.830447037E0,1.286612701E1,3.614949036E1,2.770762920E0,3.847076818E1
5.835217662E0,9.677652359E0,3.583965683E1,4.306166649E0,3.737219592E1
5.839989120E0,6.401764870E0,3.537372589E1,6.057171822E0,3.645507382E1
5.844761308E0,3.422387600E0,3.481045914E1,7.824193954E0,3.584269540E1
5.849532662E0,8.471527100E-1,3.439212418E1,9.606117249E0,3.571852967E1
5.854303287E0,-1.214966297E0,3.413985062E1,1.129190445E1,3.597933642E1
5.859074745E0,-2.684549809E0,3.402159500E1,1.299293041E1,3.651700939E1
5.863846933E0,-3.676894903E0,3.393077087E1,1.465237427E1,3.714173986E1
5.868618287E0,-4.193617344E0,3.388656616E1,1.624188423E1,3.781117026E1
5.873388964E0,-4.373908997E0,3.391159821E1,1.766830063E1,3.848761385E1
5.878160318E0,-4.383729935E0,3.389675903E1,1.899088860E1,3.910065486E1
5.882932558E0,-4.358230114E0,3.354140854E1,2.023264122E1,3.941294238E1
5.887704016E0,-4.262572289E0,3.299490738E1,2.128486061E1,3.949530006E1
5.892474589E0,-4.197710037E0,3.257437897E1,2.249567032E1,3.980912104E1
5.897246048E0,-4.103260040E0,3.187505341E1,2.334529495E1,3.972226792E1
5.902018235E0,-3.987321377E0,3.085623360E1,2.376495934E1,3.915072382E1
5.906789589E0,-3.813454628E0,2.952314758E1,2.376137733E1,3.808886625E1
5.911560214E0,-3.691667080E0,2.804867935E1,2.333624840E1,3.667338692E1
5.916331673E0,-3.630626678E0,2.639807129E1,2.283377647E1,3.509160820E1
5.921103860E0,-3.536032200E0,2.451074219E1,2.227502060E1,3.330850566E1
5.925875214E0,-3.248814106E0,2.240555191E1,2.150713730E1,3.122691955E1
5.930645839E0,-2.825938225E0,2.029067421E1,2.086461830E1,2.924089061E1
5.935417298E0,-2.370684147E0,1.827381134E1,2.045573044E1,2.753160424E1
5.940189485E0,-1.891457558E0,1.656544113E1,2.017477798E1,2.617275527E1
5.944960839E0,-1.296472073E0,1.511708164E1,1.981366348E1,2.495572595E1
5.949731464E0,-3.409242630E-1,1.383650875E1,1.910102081E1,2.358843360E1
5.954502923E0,8.253030777E-1,1.283609390E1,1.795119476E1,2.208374573E1
5.959275110E0,1.916057587E0,1.198340321E1,1.641765022E1,2.041598560E1
5.964046464E0,2.822433472E0,1.124446487E1,1.466633987E1,1.869507011E1
5.968817089E0,3.530691147E0,1.068274879E1,1.295292187E1,1.715707104E1
5.973588548E0,4.266090393E0,1.040239239E1,1.122876930E1,1.589007724E1
5.978360735E0,5.052432060E0,1.004773331E1,9.666529655E0,1.482989582E1
5.983132089E0,6.125523567E0,9.613871574E0,8.383825302E0,1.415051562E1
5.987902714E0,7.971441269E0,9.682044029E0,7.338754654E0,1.453076641E1
5.992674173E0,1.093978977E1,1.053086567E1,6.386833668E0,1.647330496E1
5.997446360E0,1.465352917E1,1.176524353E1,5.532186508E0,1.958958805E1
6.002217714E0,1.870338058E1,1.283335304E1,4.741185188E0,2.317304970E1
6.006988339E0,2.278149033E1,1.379922581E1,4.309915066E0,2.698129541E1
6.011759798E0,2.677260590E1,1.458398914E1,3.725420237E0,3.071390437E1
6.016531985E0,3.027289772E1,1.497696877E1,3.145479441E0,3.392126134E1
6.021303339E0,3.293382263E1,1.500640583E1,2.874954224E0,3.630556777E1
6.026074016E0,3.491355515E1,1.478782845E1,2.989554644E0,3.803384861E1
6.030845475E0,3.670659256E1,1.445359421E1,3.448969364E0,3.960019839E1
6.035617662E0,3.857891846E1,1.402580833E1,3.815836191E0,4.122640967E1
6.040389016E0,4.058700943E1,1.345259857E1,4.148691654E0,4.295915950E1
6.045159641E0,4.292205429E1,1.240359879E1,4.555232525E0,4.490993376E1
6.049931100E0,4.548507690E1,1.139897346E1,5.034764767E0,4.716118821E1
6.054703287E0,4.848139191E1,1.103238010E1,5.358699322E0,5.000874354E1
6.059474641E0,5.222960281E1,1.109351158E1,5.290398121E0,5.365618065E1
6.064245266E0,5.674347687E1,1.093020630E1,4.405263901E0,5.795427445E1
6.069016725E0,6.198095703E1,1.028383827E1,2.478624344E0,6.287718142E1
6.073788912E0,6.742352295E1,9.092842102E0,1.672406197E-1,6.803410317E1
6.078560266E0,6.923329926E1,7.223798752E0,-2.025791645E0,6.963861591E1
6.083330891E0,6.933013153E1,4.474228859E0,-3.812597752E0,6.957888878E1
6.088102350E0,6.945307922E1,9.496049881E-1,-5.387627125E0,6.966820286E1
6.092874537E0,6.960317993E1,-2.456071377E0,-6.868572712E0,6.998437136E1
6.097645891E0,6.848282623E1,-6.266508579E0,-7.757263660E0,6.920507032E1
6.102416516E0,6.428530884E1,-1.099926186E1,-7.750745773E0,6.567844969E1
6.107187975E0,5.966106415E1,-1.574078369E1,-6.914791107E0,6.208888131E1
6.111960162E0,5.430827332E1,-1.967224503E1,-5.657649040E0,5.803787356E1
6.116731516E0,4.860575867E1,-2.286989403E1,-4.230360508E0,5.388365038E1
6.121502193E0,4.308988953E1,-2.574629593E1,-2.581548214E0,5.026206049E1
6.126273652E0,3.792410278E1,-2.839019775E1,-7.515268326E-1,4.737938046E1
6.131045787E0,3.310456085E1,-3.074103546E1,1.352252603E0,4.519681181E1
6.135817245E0,2.857696533E1,-3.264135361E1,3.710172653E0,4.354154676E1
6.140587818E0,2.412867546E1,-3.429567719E1,6.278035164E0,4.240047380E1
6.145359277E0,1.959481049E1,-3.588745117E1,9.007109642E0,4.186876848E1
6.150131464E0,1.546021461E1,-3.741816711E1,1.112572002E1,4.198713032E1
6.154902818E0,1.225585938E1,-3.874876404E1,1.188383675E1,4.234263076E1
6.159673443E0,9.624576569E0,-3.978759003E1,1.144098663E1,4.250389358E1
6.164444902E0,7.402985096E0,-4.077163696E1,1.021053219E1,4.267769366E1
6.169217089E0,5.600771904E0,-4.169758224E1,8.629084587E0,4.294785340E1
6.173988443E0,3.861539841E0,-4.235113525E1,7.229437351E0,4.313693211E1
6.178759068E0,2.010420799E0,-4.325665665E1,6.144049644E0,4.373704931E1
6.183530527E0,4.408745766E-1,-4.505444336E1,4.574381828E0,4.528821266E1
6.188302714E0,-7.075350285E-1,-4.773678589E1,2.476654053E0,4.780622499E1
6.193074068E0,-1.692422867E0,-5.061934280E1,2.958786488E-1,5.064849164E1
6.197844693E0,-2.625995159E0,-5.263220215E1,-2.112284899E0,5.273998769E1
6.202616152E0,-3.685860634E0,-5.328319550E1,-4.748640537E0,5.362120922E1
6.207388339E0,-5.359894753E0,-5.366376877E1,-7.351563454E0,5.442953275E1
6.212159693E0,-8.083497047E0,-5.460243988E1,-9.779086113E0,5.605711276E1
6.216930370E0,-1.160018349E1,-5.578959656E1,-1.168585968E1,5.816874296E1
6.221701829E0,-1.548755360E1,-5.759827805E1,-1.313826561E1,6.107405319E1
6.226474016E0,-1.924556160E1,-5.955961227E1,-1.396545696E1,6.413090553E1
6.231245370E0,-2.256439018E1,-6.116992950E1,-1.424959946E1,6.673801813E1
6.236015995E0,-2.520365143E1,-6.241734314E1,-1.396329117E1,6.874679825E1
6.240787454E0,-2.694001389E1,-6.366111755E1,-1.295349789E1,7.032990362E1
6.245559641E0,-2.771633720E1,-6.493064117E1,-1.091204071E1,7.143707821E1
6.250330995E0,-2.769014931E1,-6.603417206E1,-8.244244576E0,7.207790103E1
6.255101620E0,-2.673800850E1,-6.673074341E1,-5.688831329E0,7.211293931E1
6.259873079E0,-2.491520309E1,-6.700116730E1,-3.523049593E0,7.157049422E1
6.264645266E0,-2.214982224E1,-6.651703644E1,-1.423640490E0,7.012244658E1
6.269416620E0,-1.840279388E1,-6.555450439E1,3.212592602E-1,6.808934628E1
6.274187245E0,-1.392553329E1,-6.403471375E1,1.751505852E0,6.555480772E1
6.278958704E0,-8.871866226E0,-6.171553802E1,2.584506035E0,6.240350403E1
6.283730891E0,-3.544879436E0,-5.879180527E1,2.795851707E0,5.896489908E1
6.288502245E0,1.511114120E0,-5.560261154E1,2.466737032E0,5.567781127E1
6.293272923E0,6.193193436E0,-5.226668167E1,1.667205095E0,5.265872416E1
6.298044381E0,1.030343437E1,-4.907442474E1,8.131678700E-1,5.015098370E1
6.302816568E0,1.384145737E1,-4.593579865E1,1.086453199E-1,4.797598715E1
6.307587923E0,1.659270096E1,-4.282757187E1,-4.842512608E-1,4.593204912E1
6.312358548E0,1.852992630E1,-3.985193634E1,-1.141283870E0,4.396404813E1
6.317130006E0,1.994318199E1,-3.704791260E1,-1.945403695E0,4.211962644E1
6.321902193E0,2.084015846E1,-3.422016907E1,-3.004034042E0,4.017905420E1
6.326673548E0,2.177396202E1,-3.147986603E1,-4.334228039E0,3.852107112E1
6.331444173E0,2.333325005E1,-2.889564896E1,-5.913842201E0,3.760814561E1
6.336215631E0,2.539857483E1,-2.621494293E1,-7.489009857E0,3.726118765E1
6.340987818E0,2.757769394E1,-2.345414734E1,-8.605737686E0,3.721135514E1
6.345759173E0,2.911668396E1,-2.083671570E1,-9.208308220E0,3.696948669E1
6.350529850E0,2.957207489E1,-1.886550331E1,-9.187726021E0,3.626057277E1
6.355301308E0,2.941134644E1,-1.774600220E1,-8.636910439E0,3.541954425E1
6.360073495E0,2.911132240E1,-1.772089958E1,-7.941020012E0,3.499370190E1
6.364844850E0,2.922131157E1,-1.818120003E1,-7.334078312E0,3.518848944E1
6.369615475E0,3.002610397E1,-1.713931847E1,-7.021766663E0,3.527929087E1
6.374386933E0,3.153894043E1,-1.296453381E1,-6.752700806E0,3.476180186E1
6.379159120E0,3.304033661E1,-1.178412247E1,-1.133059120E1,3.686341930E1
6.383930475E0,4.152978897E1,-1.511289120E1,-2.142358017E1,4.911305977E1
6.388701100E0,5.181521606E1,-1.861709023E1,-2.113887024E1,5.897681323E1
6.393472558E0,5.874801636E1,-1.727374268E1,-1.026479626E1,6.208927165E1
6.398244745E0,6.168233109E1,-1.228996277E1,2.298464537E0,6.293676264E1
6.403016100E0,6.100497437E1,-7.809207916E0,8.812473297E0,6.213091269E1
6.407786725E0,6.222562408E1,-3.791709900E0,1.206021976E1,6.349688384E1
6.412558183E0,6.538852692E1,-7.536301613E-1,1.503772926E1,6.709963273E1
6.417330423E0,6.821990967E1,1.608624935E0,1.725944519E1,7.038772761E1
6.422101777E0,6.977766418E1,4.551153183E0,1.855269051E1,7.234526757E1
6.426872402E0,6.991800690E1,8.884723663E0,1.861509323E1,7.289710350E1
6.431643860E0,6.987858582E1,1.377019691E1,1.693115616E1,7.320723412E1
6.436416048E0,6.733785248E1,1.752223778E1,1.398017788E1,7.097084307E1
6.441187402E0,6.279017258E1,1.919574356E1,1.063888931E1,6.651517352E1
6.445958027E0,5.751417160E1,1.959236145E1,8.185063362E0,6.130852978E1
6.450729485E0,5.168816376E1,1.965904617E1,6.885072231E0,5.572744915E1
6.455501673E0,4.557775497E1,1.942379951E1,6.527645111E0,4.997225117E1
6.460273027E0,3.958231354E1,1.864650154E1,6.253933430E0,4.419913176E1
6.465043652E0,3.409864807E1,1.737639236E1,5.816515446E0,3.871031728E1
6.469815162E0,2.926102829E1,1.571730614E1,5.224072456E0,3.362339099E1
6.474587298E0,2.502259827E1,1.389240646E1,4.611021996E0,2.898949646E1
6.479358756E0,2.133441544E1,1.217428017E1,4.129347324E0,2.490826949E1
6.484129329E0,1.794746399E1,1.070152283E1,3.688197136E0,2.121878537E1
6.488900787E0,1.481677151E1,9.383204460E0,3.348499537E0,1.785479468E1
6.493672975E0,1.186165142E1,8.191072464E0,3.250051498E0,1.477684937E1
6.498444329E0,9.259374619E0,7.271518230E0,3.390895367E0,1.225190463E1
6.503214954E0,7.095259666E0,6.815042496E0,3.641967058E0,1.049054041E1
6.507986412E0,5.470573425E0,6.718832016E0,3.841092348E0,9.477545446E0
6.512758600E0,4.268285751E0,6.829401970E0,4.050382614E0,9.014687673E0
6.517529954E0,3.567088127E0,7.014416695E0,4.419703007E0,9.025515716E0
6.522300579E0,3.265619278E0,7.392261982E0,4.951759815E0,9.477854807E0
6.527072037E0,3.271840096E0,7.965991020E0,5.610338688E0,1.027802757E1
6.531844225E0,3.213546753E0,8.612368584E0,6.452929497E0,1.123120984E1
6.536615683E0,3.024881363E0,9.186925888E0,7.366499901E0,1.215791246E1
6.541386256E0,2.891291618E0,9.612714767E0,8.209443092E0,1.296760611E1
6.546157714E0,2.804204941E0,9.911041260E0,8.942779541E0,1.364058687E1
6.550929902E0,2.771867752E0,1.010781860E1,9.506401062E0,1.415001445E1
6.555701256E0,2.714489937E0,1.028637695E1,9.884304047E0,1.452162088E1
6.560471881E0,2.683939934E0,1.046321392E1,1.023489761E1,1.488070927E1
6.565243339E0,2.569667816E0,1.053067112E1,1.064735603E1,1.519422316E1
6.570015527E0,2.479286194E0,1.061333466E1,1.096047211E1,1.545709162E1
6.574786881E0,2.255517960E0,1.064924431E1,1.109831715E1,1.554562347E1
6.579557506E0,2.004896164E0,1.062441921E1,1.109399796E1,1.549111626E1
6.584328964E0,1.702278137E0,1.053913593E1,1.112647438E1,1.541977851E1
6.589101152E0,1.262525558E0,1.048244476E1,1.116570663E1,1.536712802E1
6.593872610E0,7.772264481E-1,1.044265556E1,1.125282478E1,1.537137605E1
6.598643183E0,3.021268845E-1,1.026913643E1,1.115453053E1,1.516476162E1
6.603414641E0,-2.169055939E-1,9.914072037E0,1.087758160E1,1.471929529E1
6.608186829E0,-7.982950211E-1,9.544952393E0,1.069121838E1,1.435428652E1
6.612958183E0,-1.396087646E0,9.283731461E0,1.064617062E1,1.419428333E1
6.617728808E0,-2.091238499E0,9.142353058E0,1.068034172E1,1.421357088E1
6.622500266E0,-2.897572517E0,8.979782104E0,1.073909283E1,1.429547229E1
6.627272454E0,-3.876837254E0,8.622126579E0,1.076741505E1,1.432857846E1
6.632043808E0,-4.980767727E0,8.070334435E0,1.072704983E1,1.431809844E1
6.636814433E0,-6.163582802E0,7.573926449E0,1.058943748E1,1.440452363E1
6.641585943E0,-7.384301662E0,7.295762062E0,1.045067120E1,1.472998926E1
6.646358131E0,-8.599749565E0,7.092741013E0,1.035848618E1,1.521712534E1
6.651129485E0,-9.771663666E0,6.829336166E0,1.040105247E1,1.582109781E1
6.655900110E0,-1.094562817E1,6.656595707E0,1.044390297E1,1.652852539E1
6.660671568E0,-1.223921394E1,6.583724022E0,1.046414566E1,1.739661244E1
6.665443756E0,-1.342771435E1,6.438477516E0,1.039638996E1,1.816156462E1
6.670215110E0,-1.441080856E1,6.225862503E0,1.027651596E1,1.876271696E1
6.674985735E0,-1.531768417E1,6.017798901E0,1.023893833E1,1.938249752E1
6.679757193E0,-1.623180389E1,5.866701603E0,1.026526356E1,2.008146611E1
6.684529381E0,-1.710021782E1,5.770200253E0,1.035878944E1,2.080906483E1
6.689300735E0,-1.797050095E1,5.687769413E0,1.050843525E1,2.158047350E1
6.694071412E0,-1.882332993E1,5.550222874E0,1.065256500E1,2.232934985E1
6.698842870E0,-1.959889603E1,5.319317818E0,1.081993580E1,2.301049496E1
6.703615058E0,-2.030710602E1,4.928885460E0,1.100514412E1,2.361748640E1
6.708386412E0,-2.091743088E1,4.549815655E0,1.135058022E1,2.422963904E1
6.713157037E0,-2.135186386E1,4.073480606E0,1.182576275E1,2.474558545E1
6.717928495E0,-2.148025131E1,3.412837029E0,1.237768745E1,2.502510339E1
6.722700683E0,-2.151461983E1,2.710597754E0,1.290081310E1,2.523206661E1
6.727472037E0,-2.156372452E1,2.037994146E0,1.324576187E1,2.538893150E1
6.732242662E0,-2.156396294E1,1.530458927E0,1.334967327E1,2.540788418E1
6.737014173E0,-2.142327499E1,1.155708075E0,1.343605900E1,2.531442383E1
6.741786360E0,-2.101148033E1,7.167196274E-1,1.364702892E1,2.506466419E1
6.746557714E0,-2.036131477E1,2.538280487E-1,1.379435158E1,2.459535939E1
6.751328339E0,-1.951741791E1,-1.258161068E-1,1.398373985E1,2.401021474E1
6.756099798E0,-1.826349258E1,-3.079919815E-1,1.406785679E1,2.305546822E1
6.760871985E0,-1.652903366E1,-4.076430798E-1,1.419073296E1,2.178880512E1
6.765643339E0,-1.417145443E1,-3.810696602E-1,1.421758652E1,2.007772649E1
6.770413964E0,-1.063168621E1,1.257185936E-1,1.448123360E1,1.796537457E1
6.775185423E0,-5.671011925E0,1.729259253E0,1.543449593E1,1.653403696E1
6.779957610E0,1.084132195E0,4.679921150E0,1.710293388E1,1.776477841E1
6.784729068E0,9.933691978E0,7.789246559E0,1.874512482E1,2.259934297E1
6.789499641E0,1.999346352E1,9.761452675E0,2.019075966E1,3.004482181E1
6.794271100E0,3.004198837E1,1.026066113E1,2.147284317E1,3.832603848E1
6.799043287E0,3.928185272E1,9.883426666E0,2.238817596E1,4.628149197E1
6.803814641E0,4.800524521E1,9.676506042E0,2.252010918E1,5.390077601E1
6.808585266E0,5.563645554E1,1.007495308E1,2.219696426E1,6.074228417E1
6.813356725E0,6.158015823E1,1.001499081E1,2.196663284E1,6.614339640E1
6.818128912E0,6.607173920E1,8.177330971E0,2.166875267E1,7.001341518E1
6.822900266E0,6.892733765E1,5.022805214E0,2.166767120E1,7.242716633E1
6.827670891E0,6.895352173E1,1.897322416E0,2.205064201E1,7.241835958E1
6.832442402E0,6.890815735E1,-5.986783504E-1,2.206505013E1,7.235716276E1
6.837214589E0,6.887594604E1,-3.056014776E0,2.113763046E1,7.211126536E1
6.841985943E0,6.885977173E1,-6.160509109E0,1.894789314E1,7.168432667E1
6.846756568E0,6.886122894E1,-9.820440292E0,1.606367302E1,7.138873504E1
6.851528027E0,6.887816620E1,-1.359608650E1,1.321843815E1,7.144076185E1
6.856300214E0,6.489234161E1,-1.735876465E1,1.038637829E1,6.797219699E1
6.861071568E0,5.773612213E1,-2.077770424E1,7.571444988E0,6.182636631E1
6.865842193E0,5.010015869E1,-2.367293930E1,5.049278259E0,5.564107446E1
6.870613704E0,4.247099304E1,-2.599389648E1,3.332078218E0,4.990561742E1
6.875385839E0,3.541999054E1,-2.781983185E1,2.878766060E0,4.513098789E1
6.880157298E0,2.948276711E1,-2.910567284E1,3.674378395E0,4.159176366E1
6.884927870E0,2.493780899E1,-2.979757118E1,5.164392948E0,3.919771065E1
6.889699329E0,2.165628815E1,-2.998542404E1,6.525185585E0,3.755926674E1
6.894471516E0,1.952067757E1,-2.982291794E1,7.486440659E0,3.642128609E1
6.899242870E0,1.813454819E1,-2.962915230E1,8.091307640E0,3.566816176E1
6.904013495E0,1.687512970E1,-2.938581657E1,8.451132774E0,3.492445938E1
6.908784954E0,1.542328835E1,-2.903743553E1,8.637580872E0,3.399497447E1
6.913557141E0,1.396869278E1,-2.884064102E1,8.763183594E0,3.322198578E1
6.918328600E0,1.270541763E1,-2.891994476E1,8.774597168E0,3.278390455E1
6.923099173E0,1.155467796E1,-2.911510849E1,8.868222237E0,3.255526825E1
6.927870631E0,1.060476303E1,-2.949278641E1,8.982925415E0,3.260334949E1
6.932642818E0,9.613466263E0,-3.009779167E1,9.339962006E0,3.294739272E1
6.937414173E0,8.272018433E0,-3.037491989E1,9.514587402E0,3.288752683E1
6.942184798E0,6.835999012E0,-3.036951447E1,9.288995743E0,3.248574662E1
6.946956256E0,5.237936020E0,-3.031827354E1,8.742954254E0,3.198551131E1
6.951728443E0,3.513487816E0,-3.012294960E1,7.967432499E0,3.135628597E1
6.956499902E0,1.745743752E0,-2.995044327E1,7.063711643E0,3.082162707E1
6.961270475E0,5.590677261E-2,-2.984781265E1,5.935191631E0,3.043224516E1
6.966041933E0,-1.506695271E0,-2.967077255E1,4.559705734E0,3.005687593E1
6.970814120E0,-2.832790375E0,-2.942848969E1,3.003294230E0,2.971667011E1
6.975585475E0,-4.080670834E0,-2.899185562E1,1.570008993E0,2.931969466E1
6.980356100E0,-5.387114048E0,-2.832287598E1,3.947558403E-1,2.883335106E1
6.985127558E0,-6.637725830E0,-2.755117989E1,-4.724481106E-1,2.834343177E1
6.989899745E0,-7.761661530E0,-2.687571716E1,-1.102465153E0,2.799576740E1
6.994671100E0,-8.824404716E0,-2.616802216E1,-1.444861531E0,2.765362774E1
6.999441777E0,-9.733779907E0,-2.539774323E1,-1.572905302E0,2.724455658E1
7.004213235E0,-1.029492760E1,-2.470430374E1,-1.589979649E0,2.681074771E1
7.008985423E0,-1.051656055E1,-2.409527588E1,-1.514776468E0,2.633391185E1
7.013756777E0,-1.031335449E1,-2.356899643E1,-1.453694105E0,2.576773370E1
7.018527402E0,-9.996290207E0,-2.299238586E1,-1.203464031E0,2.510027791E1
7.023298860E0,-9.643944740E0,-2.237571335E1,-9.452962875E-1,2.438384307E1
7.028071048E0,-9.418397903E0,-2.178166580E1,-7.928001881E-1,2.374396168E1
7.032842402E0,-9.292600632E0,-2.114348984E1,-9.068233967E-1,2.311324118E1
7.037613079E0,-9.268140793E0,-2.055230713E1,-1.118088007E0,2.257312302E1
7.042384537E0,-9.296714783E0,-1.992680740E1,-1.353525877E0,2.203040152E1
7.047156725E0,-9.425473213E0,-1.922903252E1,-1.542987823E0,2.147035277E1
7.051928079E0,-9.563241005E0,-1.858592606E1,-1.691062927E0,2.097026275E1
7.056698704E0,-9.645509720E0,-1.816245270E1,-1.747581005E0,2.063890949E1
7.061470162E0,-9.655593872E0,-1.779809570E1,-1.805526257E0,2.032886196E1
7.066242350E0,-9.653197289E0,-1.735179520E1,-1.812168837E0,1.993873041E1
7.071013704E0,-9.599647522E0,-1.683580017E1,-1.777002811E0,1.946163248E1
7.075784381E0,-9.528168678E0,-1.631968307E1,-1.606849909E0,1.896575916E1
7.080555839E0,-9.469961166E0,-1.593250656E1,-1.237397671E0,1.857568526E1
7.085328027E0,-9.506813049E0,-1.563802910E1,-7.815833092E-1,1.831770512E1
7.090099381E0,-9.596254349E0,-1.535451317E1,-1.943243742E-1,1.810764850E1
7.094870006E0,-9.744131088E0,-1.519139385E1,2.992360592E-1,1.805037617E1
7.099641464E0,-1.008608055E1,-1.534369278E1,5.055422783E-1,1.836881874E1
7.104413652E0,-1.066753769E1,-1.569740772E1,5.084327459E-1,1.898587563E1
7.109185006E0,-1.143754959E1,-1.594906616E1,4.487128258E-1,1.963139311E1
7.113955683E0,-1.233005428E1,-1.599328709E1,5.432944298E-1,2.020174842E1
7.118727141E0,-1.322738171E1,-1.571457386E1,7.651113272E-1,2.055472826E1
7.123499329E0,-1.348481941E1,-1.493793106E1,9.837532640E-1,2.014819866E1
7.128270683E0,-1.223102188E1,-1.379033852E1,1.157758355E0,1.846921052E1
7.133041308E0,-9.245109558E0,-1.229892540E1,1.968476534E0,1.551162521E1
7.137812766E0,-4.384140015E0,-1.057311153E1,3.349157810E0,1.192594773E1
7.142584954E0,2.153797150E0,-8.061243057E0,5.379173279E0,9.927637531E0
7.147356308E0,9.530735016E0,-4.480995178E0,8.435852051E0,1.349362174E1
7.152126985E0,1.740802574E1,-3.157320023E-1,1.252726173E1,2.144927350E1
7.156898443E0,2.581561852E1,3.761795044E0,1.693729782E1,3.110416883E1
7.161670631E0,3.460873032E1,7.689020157E0,2.066046524E1,4.103340187E1
7.166441985E0,4.292481995E1,1.122585487E1,2.360251236E1,5.025573176E1
7.171212610E0,4.977554321E1,1.388653278E1,2.540743065E1,5.758452941E1
7.175984068E0,5.433372498E1,1.527437592E1,2.588216400E1,6.209143776E1
7.180756256E0,5.631180573E1,1.645612717E1,2.566555023E1,6.403549058E1
7.185527714E0,5.505813599E1,1.705515862E1,2.472390366E1,6.271800527E1
7.190298287E0,5.092362213E1,1.663854790E1,2.239936447E1,5.806709994E1
7.195069745E0,4.523263931E1,1.522709084E1,1.912356186E1,5.141562576E1
7.199841933E0,3.901517868E1,1.290985775E1,1.573234749E1,4.400403791E1
7.204613287E0,3.308464813E1,1.019897747E1,1.222648811E1,3.671648261E1
7.209383964E0,2.754309654E1,7.686146736E0,8.948926926E0,2.996301573E1
7.214155423E0,2.233778381E1,5.413849831E0,6.106925964E0,2.378194484E1
7.218927610E0,1.756631088E1,3.125115871E0,3.387717724E0,1.816089917E1
7.223698964E0,1.331394577E1,8.303756714E-1,5.645728707E-1,1.335175712E1
7.228469589E0,9.369812012E0,-1.140788078E0,-2.104288340E0,9.670718897E0
7.233241048E0,5.757787228E0,-2.667914867E0,-4.530683041E0,7.797241327E0
7.238013235E0,2.619073868E0,-3.640694618E0,-6.610490799E0,7.988291046E0
7.242784589E0,-5.317687988E-3,-4.293695450E0,-8.202625275E0,9.258450750E0
7.247555266E0,-2.135807991E0,-4.680126190E0,-9.413857460E0,1.072781288E1
7.252326725E0,-3.746467590E0,-4.894501686E0,-1.037183189E1,1.206511761E1
7.257098912E0,-4.865586758E0,-4.993581295E0,-1.107437611E1,1.308631326E1
7.261870266E0,-5.585774899E0,-5.024473190E0,-1.146116638E1,1.370417991E1
7.266640891E0,-6.001489162E0,-4.936540604E0,-1.169910431E1,1.404479786E1
7.271412350E0,-6.211903095E0,-4.683771610E0,-1.174379921E1,1.408695412E1
7.276184537E0,-6.313565254E0,-4.428316116E0,-1.153646374E1,1.387663812E1
7.280955891E0,-6.278922081E0,-4.123689651E0,-1.114022636E1,1.343630613E1
7.285726568E0,-6.238315582E0,-3.902847052E0,-1.062814808E1,1.292696128E1
7.290498027E0,-6.250545025E0,-3.800196886E0,-1.005897427E1,1.243759514E1
7.295270214E0,-6.314901352E0,-3.809046268E0,-9.474486351E0,1.200636099E1
7.300041568E0,-6.457207203E0,-3.783669233E0,-8.889633179E0,1.162055316E1
7.304812193E0,-6.715719700E0,-3.898391008E0,-8.271876335E0,1.134558424E1
7.309583652E0,-7.454651833E0,-4.281035423E0,-7.663707733E0,1.151657564E1
7.314355891E0,-8.287110329E0,-4.666937828E0,-6.923836708E0,1.176418382E1
7.319127245E0,-8.809709549E0,-5.040500641E0,-6.125466347E0,1.185491320E1
7.323897870E0,-9.236157417E0,-5.314737797E0,-5.214816093E0,1.186369877E1
7.328669329E0,-9.718035698E0,-5.596099377E0,-4.219836235E0,1.198180136E1
7.333441516E0,-1.014348602E1,-5.802346706E0,-3.200044155E0,1.211601496E1
7.338212870E0,-1.044106483E1,-5.894834995E0,-2.205322266E0,1.219132318E1
7.342983495E0,-1.052960396E1,-5.957159996E0,-1.320930600E0,1.216984685E1
7.347755006E0,-1.056953621E1,-6.065621376E0,-5.864444971E-1,1.220044161E1
7.352527193E0,-1.054628181E1,-6.074458599E0,3.249639273E-2,1.217062708E1
7.357298548E0,-1.044274521E1,-5.988930702E0,5.130669475E-1,1.204912678E1
7.362069173E0,-1.022262573E1,-5.797759533E0,9.279697537E-1,1.178886001E1
7.366840631E0,-9.971537590E0,-5.525713921E0,1.230304837E0,1.146641732E1
7.371612818E0,-9.681697845E0,-5.238324642E0,1.425653100E0,1.109990113E1
7.376384173E0,-9.407568932E0,-4.948449135E0,1.579048634E0,1.074629688E1
7.381154850E0,-9.136542320E0,-4.642704010E0,1.653105021E0,1.038093745E1
7.385926308E0,-8.959033012E0,-4.331378937E0,1.677442074E0,1.009152753E1
7.390698495E0,-8.879499435E0,-4.026796341E0,1.825044394E0,9.919243219E0
7.395469850E0,-8.876261711E0,-3.743405342E0,2.057887554E0,9.850685596E0
7.400240475E0,-8.970839500E0,-3.433259964E0,2.356693268E0,9.890259778E0
7.405011985E0,-9.151394844E0,-3.100857973E0,2.656217337E0,1.002092003E1
7.409784173E0,-9.396629333E0,-2.872526646E0,2.943351269E0,1.025725932E1
7.414555527E0,-9.639910698E0,-2.718875170E0,3.135486841E0,1.049530553E1
7.419326152E0,-9.783349037E0,-2.534449816E0,3.169444561E0,1.059163505E1
7.424097610E0,-9.858242989E0,-2.302510977E0,3.132762432E0,1.059720303E1
7.428869798E0,-9.840662956E0,-2.011445761E0,3.072592735E0,1.050358927E1
7.433641152E0,-9.773646355E0,-1.704806566E0,3.011761665E0,1.036828032E1
7.438411829E0,-9.745619774E0,-1.426137209E0,2.958795547E0,1.028423275E1
7.443183287E0,-9.792458534E0,-1.185308456E0,2.945750713E0,1.029439884E1
7.447955475E0,-9.916608810E0,-1.006334066E0,2.890181065E0,1.037810123E1
7.452726829E0,-1.013734722E1,-8.341698647E-1,2.836425781E0,1.055968557E1
7.457497454E0,-1.039514446E1,-7.067074776E-1,2.719302654E0,1.076815076E1
7.462268964E0,-1.063750744E1,-6.333894730E-1,2.641513348E0,1.097885875E1
7.467041152E0,-1.083832741E1,-5.015408993E-1,2.634212971E0,1.116512258E1
7.471812506E0,-1.102635765E1,-2.013723850E-1,2.721311092E0,1.135898974E1
7.476583131E0,-1.121606636E1,1.737346649E-1,2.886002064E0,1.158271714E1
7.481354589E0,-1.138124657E1,5.282483101E-1,3.056826591E0,1.179644050E1
7.486126777E0,-1.135219574E1,8.384513855E-1,3.298865318E0,1.185149194E1
7.490898131E0,-1.123913002E1,1.221444845E0,3.647955179E0,1.187929072E1
7.495668808E0,-1.114725494E1,1.707883835E0,4.082507610E0,1.199354111E1
7.500440266E0,-1.099979305E1,2.277944088E0,4.516582489E0,1.210718769E1
7.505212454E0,-1.076554871E1,2.756638050E0,4.862239838E0,1.213002343E1
7.509983808E0,-1.050889874E1,3.224539280E0,5.318051338E0,1.221131755E1
7.514754433E0,-1.013657284E1,3.662256002E0,5.943628788E0,1.230808479E1
7.519525891E0,-9.672904968E0,4.110559464E0,6.950584888E0,1.260049284E1
7.524298131E0,-9.111366272E0,4.548240662E0,8.154888153E0,1.304629025E1
7.529069485E0,-8.352226257E0,5.013806343E0,9.427259445E0,1.355622212E1
7.533840110E0,-7.326902866E0,5.559972763E0,1.079874706E1,1.418484194E1
7.538611568E0,-6.151061535E0,6.294620514E0,1.217122555E1,1.501987140E1
7.543383756E0,-4.658088207E0,7.246979237E0,1.359280014E1,1.609287760E1
7.548155110E0,-2.700558186E0,8.305558205E0,1.497867012E1,1.733885435E1
7.552925787E0,-2.693853378E-1,9.769723892E0,1.602774811E1,1.877255398E1
7.557697245E0,2.200240135E0,1.187750340E1,1.746722603E1,2.123723449E1
7.562469433E0,4.936073303E0,1.422872734E1,1.894628143E1,2.420295605E1
7.567240787E0,8.081692696E0,1.632207680E1,2.018325615E1,2.718616885E1
7.572011412E0,1.163435841E1,1.829596138E1,2.149040794E1,3.052766175E1
7.576782923E0,1.553886127E1,1.996980667E1,2.277313423E1,3.404210673E1
7.581555110E0,1.986695862E1,2.117453766E1,2.394054413E1,3.763252241E1
7.586326464E0,2.455662346E1,2.220392609E1,2.490023041E1,4.142539757E1
7.591097089E0,2.993857193E1,2.307181358E1,2.545090103E1,4.556725836E1
7.595868548E0,3.606865692E1,2.365092468E1,2.556890106E1,5.014063175E1
7.600640735E0,4.235049438E1,2.395034790E1,2.538271141E1,5.487682186E1
7.605412193E0,4.768146896E1,2.353914833E1,2.499370766E1,5.875627123E1
7.610182766E0,5.141387939E1,2.223618126E1,2.416553116E1,6.100661970E1
7.614954225E0,5.312904739E1,2.028883171E1,2.283406448E1,6.128398543E1
7.619726412E0,5.303625870E1,1.778168297E1,2.083328438E1,5.969136222E1
7.624497766E0,5.181274414E1,1.512109184E1,1.828565407E1,5.698748124E1
7.629268443E0,4.988909149E1,1.264416885E1,1.540286064E1,5.372191891E1
7.634039902E0,4.752155304E1,1.029750252E1,1.227776909E1,5.015057502E1
7.638812089E0,4.476323700E1,7.894496918E0,8.967029572E0,4.633009915E1
7.643583443E0,4.144243622E1,5.489879608E0,5.901196957E0,4.221893442E1
7.648354068E0,3.750210571E1,3.048126698E0,3.461555481E0,3.778467117E1
7.653125579E0,3.315269470E1,6.494264603E-1,1.803162217E0,3.320804593E1
7.657897766E0,2.836961746E1,-1.730237007E0,1.076928735E0,2.844272650E1
7.662669120E0,2.342421722E1,-4.273604870E0,1.079036593E0,2.383530934E1
7.667439745E0,1.866175842E1,-6.701608181E0,1.400611877E0,1.987799017E1
7.672211204E0,1.429586124E1,-8.920139313E0,2.010445833E0,1.697004498E1
7.676983391E0,1.033940792E1,-1.089570427E1,2.649368286E0,1.525250406E1
7.681754850E0,6.819764137E0,-1.263358116E1,3.303434372E0,1.473191211E1
7.686525423E0,3.893617630E0,-1.413269234E1,3.973451138E0,1.518820479E1
7.691296881E0,1.622488976E0,-1.529072666E1,4.529454231E0,1.602980811E1
7.696069068E0,-1.067447662E-2,-1.609030914E1,4.815532207E0,1.679546107E1
7.700840423E0,-1.111091614E0,-1.661778450E1,4.778896332E0,1.732694827E1
7.705611048E0,-1.893800259E0,-1.681863594E1,4.446876049E0,1.749936287E1
7.710382558E0,-2.667014599E0,-1.691546631E1,3.918934822E0,1.756712889E1
7.715154745E0,-3.325078011E0,-1.692208481E1,3.111043930E0,1.752403185E1
7.719926100E0,-4.001672745E0,-1.678242683E1,2.100089788E0,1.738026502E1
7.724696725E0,-4.794548035E0,-1.646389961E1,9.570733309E-1,1.717450642E1
7.729468183E0,-5.677392006E0,-1.609803391E1,-1.998344213E-1,1.707101079E1
7.734240423E0,-6.648101807E0,-1.580598736E1,-1.062536001E0,1.718008954E1
7.739011777E0,-7.814678669E0,-1.557216835E1,-1.630814433E0,1.749917671E1
7.743782402E0,-9.053096771E0,-1.536182976E1,-1.989150524E0,1.794160234E1
7.748553860E0,-1.024648952E1,-1.511676216E1,-2.396293640E0,1.841872061E1
7.753326048E0,-1.131449699E1,-1.493856049E1,-2.743603230E0,1.893952983E1
7.758097506E0,-1.227501774E1,-1.478523254E1,-2.914603233E0,1.943641103E1
7.762868079E0,-1.301193619E1,-1.440706825E1,-3.100446224E0,1.965926921E1
7.767639537E0,-1.361209202E1,-1.383506012E1,-3.376272678E0,1.970018159E1
7.772411725E0,-1.396828079E1,-1.316981125E1,-3.709361315E0,1.955290664E1
7.777183079E0,-1.393978500E1,-1.250000381E1,-3.954239845E0,1.913644988E1
7.781953756E0,-1.367031479E1,-1.187866020E1,-4.080027103E0,1.856412389E1
7.786725214E0,-1.327924347E1,-1.122747040E1,-4.139031887E0,1.787528975E1
7.791497402E0,-1.267007065E1,-1.042580318E1,-4.097173691E0,1.691197489E1
7.796268756E0,-1.187303257E1,-9.494367599E0,-4.051753521E0,1.573304246E1
7.801039381E0,-1.094908142E1,-8.525984764E0,-3.985158920E0,1.443801551E1
7.805810839E0,-9.942177773E0,-7.539460659E0,-3.875113964E0,1.306548408E1
7.810583079E0,-8.941711426E0,-6.632488728E0,-3.947254419E0,1.181206702E1
7.815354433E0,-8.090194702E0,-5.794331551E0,-4.076731682E0,1.075384906E1
7.820125058E0,-7.398836613E0,-5.023441792E0,-4.339376450E0,9.940218238E0
7.824896516E0,-6.955734730E0,-4.246065140E0,-4.493566513E0,9.306097722E0
7.829668704E0,-6.662367821E0,-3.543972731E0,-4.676333904E0,8.877780493E0
7.834440162E0,-6.487689495E0,-3.012653112E0,-4.788065910E0,8.607657575E0
7.839210735E0,-6.443908691E0,-2.560673237E0,-4.909265518E0,8.495992854E0
7.843982193E0,-6.569575787E0,-2.170661926E0,-4.958590984E0,8.512269014E0
7.848754381E0,-6.781384468E0,-1.841720581E0,-4.989385128E0,8.618182753E0
7.853525735E0,-6.967332363E0,-1.616056442E0,-5.009930611E0,8.732397346E0
7.858296412E0,-7.056168079E0,-1.416303635E0,-4.949649811E0,8.734669839E0
7.863067870E0,-7.105468273E0,-1.218223572E0,-4.781415939E0,8.650646591E0
7.867840058E0,-7.079511642E0,-9.927973747E-1,-4.478026867E0,8.435511623E0
7.872611412E0,-6.983026028E0,-7.853569984E-1,-4.032233715E0,8.101749617E0
7.877382089E0,-6.858936787E0,-5.910458565E-1,-3.553668022E0,7.747445092E0
7.882153548E0,-6.716870308E0,-4.358854294E-1,-3.091467381E0,7.406990847E0
7.886925735E0,-6.611389637E0,-3.702626228E-1,-2.714240313E0,7.156442399E0
7.891697089E0,-6.460934162E0,-4.179773331E-1,-2.370215178E0,6.894657010E0
7.896467714E0,-6.360813141E0,-6.053218842E-1,-2.034141064E0,6.705526695E0
7.901239225E0,-6.361037254E0,-8.483209610E-1,-1.759011269E0,6.654063724E0
7.906011412E0,-6.420720100E0,-1.182681561E0,-1.487146378E0,6.695967938E0
7.910782766E0,-6.594923019E0,-1.572184563E0,-1.284389973E0,6.900321118E0
7.915553391E0,-6.778660297E0,-1.983067036E0,-1.193631411E0,7.162928608E0
7.920324850E0,-6.888605118E0,-2.341205120E0,-1.103866816E0,7.358847996E0
7.925097037E0,-6.925246239E0,-2.689963341E0,-1.039935350E0,7.501760045E0
7.929868495E0,-6.865211010E0,-3.075187206E0,-9.666352868E-1,7.584344556E0
7.934639068E0,-6.771080971E0,-3.423316479E0,-8.754959106E-1,7.637612606E0
7.939410527E0,-6.597587109E0,-3.780511379E0,-7.707464695E-1,7.642936089E0
7.944182714E0,-6.345033169E0,-4.254743576E0,-6.933650970E-1,7.670921976E0
7.948954068E0,-6.087651730E0,-4.815122604E0,-5.463287830E-1,7.780962949E0
7.953724745E0,-5.921072483E0,-5.456813812E0,-4.129559994E-1,8.062657688E0
7.958496204E0,-5.828428268E0,-6.174701214E0,-3.628624678E-1,8.498775225E0
7.963268391E0,-5.864655018E0,-6.886837006E0,-4.090275764E-1,9.054833294E0
7.968039745E0,-6.103726864E0,-7.642644405E0,-3.502796888E-1,9.787144170E0
7.972810423E0,-6.486095428E0,-8.371595383E0,-4.659006596E-1,1.060047671E1
7.977581881E0,-6.768473625E0,-9.103563309E0,-7.185702324E-1,1.136676926E1
7.982354068E0,-6.903573990E0,-9.921309471E0,-9.328150749E-1,1.212278266E1
7.987125423E0,-7.264759541E0,-1.067568779E1,-1.051713824E0,1.295581502E1
7.991896100E0,-7.610977173E0,-1.162627220E1,-1.298464537E0,1.395647481E1
7.996667558E0,-7.797686577E0,-1.281448555E1,-1.747522831E0,1.510194663E1
8.001439745E0,-7.950646400E0,-1.413373470E1,-2.112129688E0,1.635348057E1
8.006211100E0,-8.104643822E0,-1.564034653E1,-2.373026609E0,1.777461522E1
8.010981725E0,-8.230392456E0,-1.734733963E1,-2.600234270E0,1.937603598E1
8.015753235E0,-8.346530914E0,-1.923428726E1,-2.933608532E0,2.117140628E1
8.020525423E0,-8.462027550E0,-2.110383987E1,-3.427980185E0,2.299410829E1
8.025296777E0,-8.804096222E0,-2.285383224E1,-3.946524620E0,2.480695094E1
8.030067402E0,-9.212799072E0,-2.440784454E1,-4.577258110E0,2.648716357E1
8.034838860E0,-9.329922676E0,-2.565568161E1,-5.421818256E0,2.783267090E1
8.039611048E0,-8.784500122E0,-2.652835274E1,-6.570131779E0,2.870692552E1
8.044382506E0,-7.491488457E0,-2.717028236E1,-7.832998753E0,2.925239328E1
8.049153079E0,-5.589438915E0,-2.751808167E1,-9.072325706E0,2.950921449E1
8.053924537E0,-2.710844278E0,-2.745402336E1,-1.007917023E1,2.937110396E1
