"Time (s)","Linear Acceleration x (m/s^2)","Linear Acceleration y (m/s^2)","Linear Acceleration z (m/s^2)","Absolute acceleration (m/s^2)"
7.422901600E-2,0.000000000E0,0.000000000E0,0.000000000E0,0.000000000E0
7.921969300E-2,-1.838314533E-1,1.535844803E-2,-2.036199570E-1,2.747562047E-1
8.421037000E-2,-3.511819243E-1,4.830265045E-2,-2.924032211E-1,4.595231591E-1
8.920104700E-2,-4.610375762E-1,8.539676666E-2,-3.312559128E-1,5.740894827E-1
9.415828700E-2,-5.027737617E-1,7.038331032E-2,-3.140444756E-1,5.969582887E-1
9.914214100E-2,-5.199819207E-1,1.257324219E-2,-2.116603851E-1,5.615508908E-1
1.041259950E-1,-5.839068890E-1,-1.044297218E-2,-2.992630005E-2,5.847665295E-1
1.091098490E-1,-5.763943195E-1,-1.697731018E-2,1.846923828E-1,6.054997250E-1
1.141071930E-1,-5.070356727E-1,-2.869844437E-3,3.590641022E-1,6.213054312E-1
1.190938080E-1,-4.086469710E-1,6.199884415E-2,5.269756317E-1,6.697309310E-1
1.240804220E-1,-2.980878651E-1,1.324665546E-1,6.307125092E-1,7.100718503E-1
1.290670370E-1,-1.387747675E-1,1.692664623E-1,6.281890869E-1,6.652301108E-1
1.340457350E-1,1.511114836E-2,2.346518040E-1,6.151485443E-1,6.585571710E-1
1.390307870E-1,1.083718240E-1,2.916498184E-1,5.514335632E-1,6.331532543E-1
1.440157870E-1,2.176426947E-1,3.212447166E-1,4.168167114E-1,5.694757953E-1
1.490007870E-1,2.847781777E-1,4.149901867E-1,2.814626694E-1,5.766599516E-1
1.539835470E-1,3.105793595E-1,4.935257435E-1,1.799850464E-1,6.102637258E-1
1.589680780E-1,3.156822026E-1,5.539216995E-1,6.654548645E-2,6.410248076E-1
1.639526100E-1,2.856787741E-1,5.681116581E-1,-4.686355591E-3,6.359128714E-1
1.689371410E-1,2.588752210E-1,5.863211155E-1,-3.635025024E-2,6.419580759E-1
1.739207870E-1,2.078077495E-1,5.855345726E-1,1.508808136E-2,6.215001582E-1
1.789051100E-1,1.470624208E-1,5.209105015E-1,6.377315521E-2,5.450157076E-1
1.838894850E-1,7.420924306E-2,4.886095524E-1,1.261281967E-1,5.100535545E-1
1.888738080E-1,2.803951502E-2,4.708032608E-1,2.019166946E-1,5.130421780E-1
1.938598490E-1,-4.354748130E-2,3.909554482E-1,2.196102142E-1,4.505232422E-1
1.988444850E-1,-5.695024133E-2,2.831268311E-1,2.736587524E-1,3.978608365E-1
2.038292240E-1,-6.124675274E-4,1.777586937E-1,3.329687119E-1,3.774476008E-1
2.088139120E-1,6.747326255E-2,3.258252144E-2,3.676023483E-1,3.751609633E-1
2.138091200E-1,1.351280808E-1,-1.261632442E-1,3.461923599E-1,3.924613516E-1
2.187959430E-1,2.393729687E-1,-2.871172428E-1,3.099784851E-1,4.856154759E-1
2.237827140E-1,3.723895848E-1,-4.113669395E-1,2.408609390E-1,6.049055742E-1
2.287695370E-1,4.432092011E-1,-5.051264763E-1,5.857563019E-2,6.745504113E-1
2.337524530E-1,5.861592293E-1,-6.160895824E-1,-9.911918640E-2,8.561387906E-1
2.387384950E-1,6.969473958E-1,-6.788864136E-1,-3.052701950E-1,1.019711884E0
2.437244850E-1,8.205732107E-1,-7.181236744E-1,-5.751590729E-1,1.232821952E0
2.487105260E-1,8.959950209E-1,-7.623068094E-1,-8.585863113E-1,1.456395964E0
2.536930780E-1,9.666084051E-1,-7.505811453E-1,-1.137033939E0,1.670493952E0
2.586783910E-1,1.006928205E0,-7.959424257E-1,-1.399443626E0,1.898913168E0
2.636637030E-1,1.040772796E0,-8.246251345E-1,-1.681526661E0,2.142602748E0
2.686490680E-1,1.056146622E0,-8.623346090E-1,-1.985522747E0,2.408602758E0
2.736290160E-1,1.048290491E0,-9.273689985E-1,-2.224802017E0,2.628434939E0
2.786132350E-1,1.007467031E0,-1.016610622E0,-2.405766487E0,2.799321233E0
2.835975060E-1,9.757625461E-1,-1.143444777E0,-2.595342159E0,2.999229806E0
2.885817240E-1,9.403816462E-1,-1.339845181E0,-2.753587723E0,3.203396338E0
2.935650580E-1,9.054366350E-1,-1.489779115E0,-2.899883270E0,3.383575076E0
2.985490680E-1,8.585667014E-1,-1.674111128E0,-3.025023937E0,3.562380478E0
3.035331310E-1,7.619863749E-1,-1.864331722E0,-3.150387287E0,3.739157133E0
3.085171930E-1,6.937676072E-1,-2.013592243E0,-3.311024189E0,3.936844980E0
3.135087030E-1,6.389987469E-1,-2.132273674E0,-3.487338543E0,4.137202017E0
3.184942760E-1,5.833886862E-1,-2.195285559E0,-3.664854527E0,4.311702650E0
3.234798490E-1,5.339937210E-1,-2.278900385E0,-3.883338928E0,4.534187633E0
3.284654220E-1,5.423535109E-1,-2.382665634E0,-4.106706619E0,4.778732270E0
3.334482350E-1,4.877071381E-1,-2.494163513E0,-4.339515686E0,5.028926950E0
3.384332350E-1,4.068479538E-1,-2.650791168E0,-4.576829433E0,5.304675931E0
3.434182350E-1,2.979854345E-1,-2.792958021E0,-4.844294548E0,5.599696375E0
3.484032870E-1,1.123352051E-1,-2.908870220E0,-5.157764435E0,5.922556806E0
3.533922970E-1,-1.486036777E-1,-3.036242962E0,-5.441141129E0,6.232725821E0
3.583781310E-1,-4.456390142E-1,-3.195621490E0,-5.624351978E0,6.484128779E0
3.633639640E-1,-7.266726494E-1,-3.301289320E0,-5.753605843E0,6.673121047E0
3.683497970E-1,-1.022972584E0,-3.367836475E0,-5.862427235E0,6.837897960E0
3.734497970E-1,-1.368062496E0,-3.399365187E0,-5.884095192E0,6.931800264E0
3.785497970E-1,-1.636374354E0,-3.411026001E0,-5.808272362E0,6.931727579E0
3.835512560E-1,-1.822025895E0,-3.391904593E0,-5.641368866E0,6.830068653E0
3.885480260E-1,-1.943000913E0,-3.376720428E0,-5.447091579E0,6.696887342E0
3.934530260E-1,-2.033248425E0,-3.408362865E0,-5.183491707E0,6.528370612E0
3.983580260E-1,-2.029629707E0,-3.451923132E0,-4.892411232E0,6.322251001E0
4.032630260E-1,-1.965872049E0,-3.473915577E0,-4.540468693E0,6.045543673E0
4.082138080E-1,-1.838668108E0,-3.554045677E0,-4.134210587E0,5.753576128E0
4.132000580E-1,-1.687324166E0,-3.665475130E0,-3.654959917E0,5.444401048E0
4.181827140E-1,-1.372202158E0,-3.765959978E0,-2.948235989E0,4.975689778E0
4.231653180E-1,-9.199726582E-1,-3.872462273E0,-2.127774954E0,4.513284835E0
4.281479740E-1,-5.409886837E-1,-4.056344032E0,-1.284603596E0,4.289149340E0
4.331462560E-1,-2.518842220E-1,-4.260281563E0,-3.455524445E-1,4.281687885E0
4.381296930E-1,9.701466560E-2,-4.431056499E0,6.968851089E-1,4.486571341E0
4.431130780E-1,4.508562088E-1,-4.515478611E0,1.704660416E0,4.847544279E0
4.480965160E-1,7.034769058E-1,-4.468551636E0,2.671292782E0,5.253440644E0
4.530818280E-1,8.063282967E-1,-4.292847633E0,3.618876934E0,5.672299039E0
4.580653180E-1,8.320627213E-1,-4.070965290E0,4.448443890E0,6.087178312E0
4.630488080E-1,8.596959114E-1,-3.780144215E0,5.021801949E0,6.344057231E0
4.680323490E-1,1.033953667E0,-3.551331997E0,5.459621429E0,6.594579993E0
4.730403700E-1,1.329679489E0,-3.345410347E0,5.753824711E0,6.787217157E0
4.780251100E-1,1.738179207E0,-3.120443583E0,5.933889389E0,6.926000172E0
4.830098490E-1,2.173126698E0,-2.937403917E0,5.977155209E0,7.005512530E0
4.879945890E-1,2.580374241E0,-2.722169399E0,5.881868839E0,6.976024549E0
4.929576100E-1,3.027408123E0,-2.503247976E0,5.891756058E0,7.081259762E0
4.979412030E-1,3.435091496E0,-2.210585833E0,6.096470833E0,7.338494391E0
5.029249010E-1,3.820699692E0,-1.806840181E0,6.474115372E0,7.731532023E0
5.079085470E-1,4.231981277E0,-1.363589525E0,6.884940624E0,8.195819015E0
5.129026100E-1,4.721292973E0,-9.323153496E-1,7.240089417E0,8.693601900E0
5.178867760E-1,5.450060368E0,-6.755943298E-1,7.594632149E0,9.372194150E0
5.228709430E-1,6.397702694E0,-5.575058460E-1,7.956307411E0,1.022468778E1
5.278551100E-1,7.560457706E0,-5.597259998E-1,8.178396225E0,1.115168053E1
5.328615680E-1,8.894311905E0,-6.214418411E-1,8.345684052E0,1.221251066E1
5.378468810E-1,1.032721329E1,-7.131140232E-1,8.566178322E0,1.343649050E1
5.428321410E-1,1.179187584E1,-7.025046349E-1,8.686033249E0,1.466250395E1
5.478174530E-1,1.317870331E1,-5.946412086E-1,8.673625946E0,1.578808431E1
5.527781830E-1,1.448038769E1,-3.431055546E-1,8.533760071E0,1.681143688E1
5.577622450E-1,1.540287590E1,9.984445572E-2,8.273205757E0,1.748440701E1
5.627463080E-1,1.591074276E1,6.312129498E-1,7.905249596E0,1.777760209E1
5.677303700E-1,1.601640701E1,1.017441988E0,7.448822975E0,1.769309033E1
5.727487560E-1,1.574684906E1,1.343827724E0,7.044210434E0,1.730289077E1
5.777345370E-1,1.531229591E1,1.597955704E0,6.873561859E0,1.686018153E1
5.827203180E-1,1.470380020E1,1.776871204E0,6.793063164E0,1.629431554E1
5.877061510E-1,1.395017433E1,1.881494999E0,6.776026726E0,1.562248141E1
5.926583390E-1,1.311519623E1,1.897965431E0,6.921629906E0,1.495057208E1
5.976424530E-1,1.228004837E1,1.961380959E0,7.239693642E0,1.438957148E1
6.026265160E-1,1.161840630E1,1.999409199E0,7.643251419E0,1.405006385E1
6.076106310E-1,1.110831070E1,1.935937405E0,8.024162292E0,1.383942198E1
6.126044850E-1,1.068309402E1,1.709591150E0,8.355371475E0,1.366980001E1
6.175890680E-1,1.025258064E1,1.524220705E0,8.574039459E0,1.345187018E1
6.225736510E-1,1.001029778E1,1.451645136E0,8.818801880E0,1.341956042E1
6.275582350E-1,1.021328926E1,1.645546675E0,9.102755547E0,1.377966835E1
6.325699010E-1,1.071133327E1,2.397702694E0,8.802646637E0,1.407011821E1
6.375558390E-1,1.267805004E1,4.905892849E0,5.996244907E0,1.485784946E1
6.425417760E-1,1.757606125E1,7.838235855E0,1.125700951E0,1.927752767E1
6.475277660E-1,2.100414276E1,8.365718842E0,-3.802254200E0,2.292632552E1
6.524818810E-1,2.200724411E1,7.023478508E0,-7.952259064E0,2.443126006E1
6.574662560E-1,2.102846527E1,5.196258545E0,-1.063750076E1,2.413200939E1
6.624506830E-1,1.720950699E1,2.742958784E0,-1.206847954E1,2.119762138E1
6.674350580E-1,1.260962009E1,1.376801729E0,-1.226963043E1,1.764771750E1
6.724308390E-1,7.074996948E0,5.439507961E-1,-1.148531723E1,1.350051763E1
6.774157870E-1,1.451274872E0,-2.218837738E-1,-1.057011795E1,1.067158960E1
6.824007350E-1,-3.870821953E0,-8.238573074E-1,-7.520906448E0,8.498590310E0
6.873856830E-1,-5.252768993E0,8.772711754E-1,-4.508243561E0,6.977495741E0
6.923741720E-1,-7.040619850E0,1.059706926E0,-4.968418598E0,8.682078669E0
6.973592760E-1,-5.188627720E0,1.968666911E0,-1.379275322E0,5.718383289E0
7.023444330E-1,-2.545751095E0,1.891120076E0,-1.008113861E0,3.327683479E0
7.073295890E-1,1.630897522E-1,1.602377892E0,-4.304420948E-1,1.667181325E0
7.123270890E-1,1.966447830E0,3.607525826E-1,7.183623314E-1,2.124406725E0
7.173128180E-1,2.532644272E0,-9.823982716E-1,2.179356575E0,3.482669731E0
7.222985470E-1,2.078402519E0,-2.256160975E0,4.042216301E0,5.074399669E0
7.272843280E-1,4.673347473E-1,-3.402307987E0,6.972910881E0,7.772746462E0
7.322576620E-1,-1.540572166E0,-3.688620329E0,9.408790588E0,1.022275026E1
7.372427660E-1,-2.665863514E0,-2.835643053E0,8.578342438E0,9.419960657E0
7.422278700E-1,-2.740938187E0,-2.254871130E0,4.086017132E0,5.412275118E0
7.472130260E-1,-2.391049385E0,-2.161712885E0,4.334836006E-1,3.252388014E0
7.522110990E-1,-2.536437035E0,-1.632563114E0,-8.630113602E-1,3.137445419E0
7.571968810E-1,-3.624802113E0,-6.330583096E-1,-8.397362232E-1,3.774269479E0
7.621826620E-1,-4.937240124E0,-3.281478882E-1,-3.930950165E-2,4.948289231E0
7.671684430E-1,-5.534075260E0,-9.423251152E-1,1.249957085E0,5.751204945E0
7.721395890E-1,-5.175031185E0,-1.614820957E0,1.191031933E0,5.550419043E0
7.771246410E-1,-4.527016163E0,-2.082055092E0,-2.662577629E-1,4.989962118E0
7.821097450E-1,-4.332156658E0,-2.469949007E0,-5.544762611E-1,5.017536580E0
7.870947970E-1,-5.517012119E0,-2.801092386E0,2.777822018E0,6.782317926E0
7.920865680E-1,-6.709389687E0,-2.289087296E0,7.298722744E0,1.017483092E1
7.970718810E-1,-5.469658852E0,-1.252085447E0,6.368268013E0,8.487621776E0
8.020572970E-1,-2.526734352E0,-2.154820442E0,2.102718115E0,3.930529366E0
8.070426620E-1,4.258861542E-1,-2.810589075E0,-1.631789684E0,3.277732073E0
8.120161510E-1,2.046270370E0,-1.378708363E0,-6.410193443E0,6.868670844E0
8.170009430E-1,2.592150688E0,1.250044346E0,-1.245638466E1,1.278449744E1
8.219857870E-1,1.483128548E0,3.548132658E0,-1.544722748E1,1.591872333E1
8.269705260E-1,3.027391434E-1,4.425791740E0,-1.426573181E1,1.493955781E1
8.319664120E-1,5.007762909E-1,3.677566290E0,-1.184202576E1,1.241003001E1
8.369517760E-1,1.364562988E0,1.677724838E0,-8.954450607E0,9.211893316E0
8.419370890E-1,2.320992470E0,-4.173364639E-1,-5.700027943E0,6.168589329E0
8.469225060E-1,2.125762939E0,-1.388571978E0,-2.627630472E0,3.653962522E0
8.518956310E-1,7.195758820E-1,-1.450922728E0,2.327764034E-1,1.636200191E0
8.568803700E-1,-1.525130272E0,-9.665150642E-1,3.012805223E0,3.512430644E0
8.618650580E-1,-3.482866287E0,-6.749818325E-1,5.119368553E0,6.228474326E0
8.668497970E-1,-4.513329506E0,-8.459131718E-1,6.047399521E0,7.593204415E0
8.718345370E-1,-4.892329693E0,-1.137241602E0,5.932025909E0,7.772846305E0
8.768192760E-1,-4.779079437E0,-1.580252409E0,6.025446892E0,7.851293409E0
8.818040160E-1,-4.306992054E0,-2.435289383E0,8.390497208E0,9.740701121E0
8.867887560E-1,-4.050088882E0,-2.498567820E0,1.045963287E1,1.149130023E1
8.917948490E-1,-4.472812653E0,-1.374973774E0,8.762663841E0,9.933825220E0
8.967806830E-1,-6.145601273E0,-1.652379036E-1,3.379100800E0,7.015271968E0
9.017664640E-1,-7.863583565E0,8.108319044E-1,-2.966989517E0,8.443720842E0
9.067522970E-1,-8.906486511E0,1.613449216E0,-9.128782272E0,1.285548078E1
9.117566720E-1,-1.013783741E1,2.880126238E0,-1.823641777E1,2.106271131E1
9.167433910E-1,-1.042059517E1,3.582364798E0,-2.097221375E1,2.369083980E1
9.217301100E-1,-8.745229721E0,3.348068237E0,-1.748762321E1,1.983697481E1
9.267168280E-1,-7.095797062E0,2.089305639E0,-1.115973759E1,1.338862491E1
9.316473490E-1,-5.984365463E0,1.064208984E0,-5.096479416E0,7.932166992E0
9.366312030E-1,-5.627355099E0,1.450812697E0,-1.781685472E0,6.078353890E0
9.416150060E-1,-4.671824932E0,9.185202122E-1,9.384073019E-1,4.852858523E0
9.465988600E-1,-4.444836140E0,6.178780794E-1,3.567946434E0,5.733112888E0
9.515932870E-1,-4.514126301E0,-2.621896267E-1,5.700864792E0,7.276396020E0
9.565776620E-1,-2.837191105E0,-2.311231375E0,1.998717499E1,2.031941455E1
9.615620370E-1,-4.128824711E0,-1.510143042E0,2.518707848E1,2.556788313E1
9.665463600E-1,-1.393428612E1,2.666606903E0,9.091482162E0,1.685022759E1
9.715302660E-1,-2.196948242E1,7.344033241E0,-1.261664677E1,2.637750477E1
9.765145890E-1,-2.005337143E1,9.083557129E0,-2.458703041E1,3.300258748E1
9.814989120E-1,-1.003730202E1,6.647009850E0,-2.312379074E1,2.606990353E1
9.864832350E-1,-2.326101780E0,3.641549587E0,-1.382430744E1,1.448389137E1
9.914751100E-1,-3.143968582E-1,3.037070513E0,-3.761839867E0,4.845005869E0
9.964598490E-1,-1.224864006E0,4.086216927E0,3.028874397E0,5.231781792E0
1.001444537E0,-2.445694447E0,5.168060303E0,5.018670559E0,7.607714690E0
1.006429224E0,-2.748010635E0,5.444560051E0,3.908244371E0,7.243560635E0
1.011407506E0,-1.464586735E0,4.756484509E0,1.682523847E0,5.253574562E0
1.016391881E0,1.367530823E0,3.054741144E0,2.513320446E-1,3.356300315E0
1.021376256E0,1.957269669E0,2.801265717E0,-1.463247061E0,3.717403143E0
1.026360631E0,1.069169044E0,3.725142956E0,-3.746546268E0,5.390400860E0
1.031350422E0,-2.189369202E-1,4.532441139E0,-5.975146294E0,7.502888063E0
1.036335110E0,-1.058540344E0,4.150303841E0,-7.075228691E0,8.270694690E0
1.041319745E0,-3.297605515E-1,3.093893766E0,-7.640703201E0,8.249925216E0
1.046304433E0,-3.025054932E-2,2.208897591E0,-7.300896645E0,7.627793618E0
1.051293547E0,-1.644468307E0,1.966298223E0,-6.570957661E0,7.053232542E0
1.056278391E0,-3.558317661E0,1.987958074E0,-6.187096119E0,7.409032343E0
1.061263287E0,-2.893138409E0,1.685550690E0,-5.253776550E0,6.230048075E0
1.066248183E0,2.333927155E-1,1.325757861E0,-3.915320396E0,4.140270507E0
1.071245839E0,1.775029182E0,1.185703278E0,-2.801234961E0,3.521865722E0
1.076231360E0,2.427896500E0,1.012596846E0,-2.966968060E0,3.965215410E0
1.081216881E0,3.644746780E0,8.160390854E-1,-3.331405640E0,5.004833905E0
1.086202401E0,3.432782173E0,1.163683891E0,-4.921018600E0,6.111839143E0
1.091181776E0,4.375306129E0,9.522247314E-1,-6.283780098E0,7.715952824E0
1.096166985E0,7.635066032E0,-3.591022253E0,-1.196159172E1,1.463794216E1
1.101152193E0,5.485605240E0,5.716221333E-1,-9.417475700E0,1.091363667E1
1.106137453E0,1.854640961E0,5.571320534E0,3.796099663E0,6.992115433E0
1.111105578E0,3.892420769E0,-4.185466766E-1,6.767216682E0,7.818013967E0
1.116089901E0,4.662464142E0,-3.798718452E0,3.643796444E0,7.031791115E0
1.121074276E0,3.436423302E0,-3.398664951E0,2.444234133E0,5.416106448E0
1.126058651E0,2.224515915E0,-2.078365803E0,-8.295055628E-1,3.155337533E0
1.131058078E0,2.469558716E-1,-1.400814056E0,-2.755069733E-1,1.448851723E0
1.136043235E0,4.748840332E-1,-2.113277912E0,2.029343605E0,2.968112843E0
1.141028339E0,-3.906731606E-1,-4.094594479E0,2.210571766E0,4.669577818E0
1.146013443E0,-5.011398315E0,-4.891726017E0,1.435035944E0,7.148595992E0
1.150998599E0,-5.587016582E0,-4.129300117E0,-2.261080980E0,7.306049613E0
1.155983756E0,-3.886025906E0,-4.195047855E0,-4.578474998E0,7.325439042E0
1.160968860E0,-1.360530853E0,-5.497487068E0,-3.525203228E0,6.670866965E0
1.165953964E0,4.273233414E-1,-5.937692642E0,-9.518342018E-1,6.028663824E0
1.170940162E0,1.373777390E0,-5.806798935E0,9.490825534E-1,6.042096977E0
1.175925318E0,1.403828144E0,-5.655251026E0,2.291454315E0,6.261258700E0
1.180910474E0,-1.189812660E0,-5.082561016E0,1.954145789E0,5.573756939E0
1.185895631E0,-2.847635269E0,-5.111154079E0,3.988562107E0,7.081069858E0
1.190873391E0,-1.412223053E1,2.378484011E0,8.498190880E0,1.665274240E1
1.195858183E0,-3.521076584E1,1.845384598E1,2.715588570E1,4.814337535E1
1.200842974E0,-1.464320183E0,-2.345877647E0,3.230747604E1,3.242561308E1
1.205827766E0,2.341568756E1,-1.896393776E1,1.760384941E1,3.489729034E1
1.210825474E0,2.181327248E1,-1.645617676E1,-7.715151310E-1,2.733532230E1
1.215810891E0,8.817637444E0,-6.257921696E0,-1.477414131E1,1.830812840E1
1.220796360E0,-5.975478172E0,3.432471514E0,-1.824541855E1,1.950342273E1
1.225781776E0,-1.232084465E1,7.414970875E0,-1.264222050E1,1.914708189E1
1.230759068E0,-1.094337273E1,7.606542587E0,-6.576008320E0,1.486138561E1
1.235744068E0,-7.245785236E0,6.546562195E0,-3.630143881E0,1.041810083E1
1.240729120E0,-4.756967545E0,5.826416969E0,-1.741369724E0,7.720637502E0
1.245714120E0,-3.789745331E0,5.695322990E0,4.831256270E-1,6.858008750E0
1.250692089E0,-3.335785866E0,5.581711769E0,3.728727102E0,7.495757428E0
1.255676776E0,-3.499757290E0,5.697290421E0,6.877455235E0,9.592018022E0
1.260661464E0,-3.489006042E0,5.946057320E0,8.020551682E0,1.057629472E1
1.265646151E0,-3.057885170E0,5.963333130E0,6.853050232E0,9.585212633E0
1.270638964E0,-2.090918303E0,6.081815720E0,3.504127026E0,7.323887493E0
1.275624068E0,-1.295949936E0,5.768376350E0,-6.781373024E-1,5.950926160E0
1.280609172E0,-5.942339897E-1,4.553834915E0,-5.776926517E0,7.379932687E0
1.285594224E0,-6.166601181E-2,5.519294739E0,-1.189448929E1,1.311279118E1
1.290592714E0,3.206260681E0,1.241498756E1,-1.363267422E1,1.871528333E1
1.295578443E0,8.406040192E0,1.376188469E1,-5.022072792E0,1.689000287E1
1.300564224E0,1.073627090E1,3.570666790E0,-9.829118729E0,1.498761987E1
1.305549953E0,1.069757843E1,7.877878189E0,-6.395077705E0,1.474436055E1
1.310515943E0,1.276786709E1,3.951400042E0,-1.938341856E0,1.350515314E1
1.315500735E0,9.476708412E0,-3.903882980E0,-7.474288464E0,1.268516033E1
1.320485526E0,5.849517345E0,-4.822869778E0,-7.919517517E0,1.096337921E1
1.325470318E0,3.012997627E0,-6.209929943E0,-2.784832716E0,7.442894454E0
1.330449068E0,-1.988384485E0,-9.440999985E0,4.680814743E0,1.072362720E1
1.335433547E0,-8.310972214E0,-1.332296753E1,8.763749123E0,1.798268672E1
1.340417974E0,-1.332845688E1,-1.547118568E1,9.836803436E0,2.266645211E1
1.345402453E0,-1.389287853E1,-1.592698860E1,1.078304672E1,2.372667563E1
1.350397506E0,-1.206078339E1,-1.702662849E1,1.109198380E1,2.363050313E1
1.355382506E0,-9.086260796E0,-1.819187737E1,1.144967842E1,2.333665943E1
1.360367453E0,-3.953190804E0,-1.827599907E1,1.265610123E1,2.257912217E1
1.365352506E0,1.531363964E0,-1.680311584E1,1.181832504E1,2.060006273E1
1.370345162E0,6.765285015E0,-1.445643902E1,9.132003784E0,1.838888805E1
1.375330526E0,1.030043221E1,-1.377726841E1,4.490285873E0,1.777848969E1
1.380315943E0,1.268916512E1,-1.363676262E1,-6.638314724E-1,1.863912225E1
1.385301360E0,1.409667492E1,-1.253881836E1,-5.636047840E0,1.969018143E1
1.390286933E0,1.223059464E1,-1.216004944E1,-9.599186897E0,1.973825313E1
1.395272297E0,1.109715557E1,-1.045422268E1,-1.066823578E1,1.860776419E1
1.400257714E0,1.133483505E1,-7.643685341E0,-7.882117271E0,1.578075359E1
1.405243026E0,1.101010323E1,-4.736488342E0,-3.475948334E0,1.247953972E1
1.410225631E0,1.046167183E1,-1.745046616E0,3.107561827E0,1.105209056E1
1.415210891E0,7.747842789E0,-4.608907700E-1,6.827086449E0,1.033685627E1
1.420196151E0,-1.166737080E0,5.969575882E0,6.623487949E0,8.992647232E0
1.425181412E0,-1.254364777E1,1.500945854E1,5.860629082E0,2.041993923E1
1.430154433E0,-1.268211937E1,9.672023773E0,1.603453040E0,1.602982399E1
1.435139120E0,-1.086834240E1,2.595285892E0,-2.015765905E0,1.135428058E1
1.440123756E0,-8.753441811E0,-2.786413193E0,-4.344834805E0,1.016191082E1
1.445108391E0,-4.916498661E0,-6.579917908E0,-5.903280258E0,1.011513700E1
1.450102610E0,7.454929352E-1,-8.833782196E0,-8.253877640E0,1.211271909E1
1.455087766E0,6.162367821E0,-8.289687157E0,-9.593898773E0,1.409739635E1
1.460072870E0,8.979925156E0,-5.974428177E0,-9.409296036E0,1.431320019E1
1.465058026E0,8.166042328E0,-2.281305313E0,-8.108026505E0,1.173152569E1
1.470040578E0,6.826362133E0,1.015687943E0,-5.970149040E0,9.125432676E0
1.475025578E0,5.170000076E0,2.539684772E0,-3.426727533E0,6.702339973E0
1.480010578E0,3.684332848E0,3.169888496E0,-1.045857191E0,4.971550953E0
1.484995578E0,3.682752609E0,4.184512615E0,-4.270442128E-1,5.590633181E0
1.489978026E0,2.960068703E0,4.233074665E0,8.358993530E-1,5.232557269E0
1.494962870E0,1.852533817E0,4.540972710E0,1.298394680E0,5.073277386E0
1.499947714E0,1.392452717E0,4.778975964E0,-1.958981752E0,5.349312604E0
1.504932610E0,6.215887547E0,-2.468696594E0,-4.469757080E0,8.044280528E0
1.509920162E0,-2.763378859E0,4.257115841E0,-3.969510317E0,6.443315153E0
1.514905214E0,-4.657638550E0,1.017885399E1,-3.774972439E0,1.181325875E1
1.519890214E0,-1.740136147E-1,7.062793732E0,-4.280551434E0,8.260536097E0
1.524875214E0,6.477775574E-1,5.811880112E0,-3.179881334E0,6.656516469E0
1.529860370E0,8.794555664E-1,5.053726673E0,-1.489020348E0,5.341420876E0
1.534845422E0,5.638222694E-1,4.324830055E0,-8.360718489E-1,4.440840764E0
1.539830422E0,3.789091110E-1,3.857950211E0,-1.455397844E0,4.140716704E0
1.544815474E0,-7.322502136E-2,3.985504627E0,-2.914545059E0,4.938034218E0
1.549791203E0,-7.229850292E-1,4.423539639E0,-3.678804398E0,5.798621567E0
1.554775735E0,-1.538459778E0,4.753386974E0,-3.237969875E0,5.953653931E0
1.559760266E0,-1.431378365E0,5.049113274E0,-2.577637196E0,5.846931023E0
1.564744849E0,5.441522598E-2,5.468737602E0,-1.850936413E0,5.773735150E0
1.569739224E0,2.083733559E0,5.320673943E0,-8.019417524E-1,5.770149679E0
1.574724276E0,2.784055710E0,5.459185600E0,1.816299558E-1,6.130796282E0
1.579709328E0,1.787140846E0,6.259045601E0,2.052443027E0,6.825104147E0
1.584694381E0,1.461478710E0,7.045694351E0,3.672549963E0,8.078697429E0
1.589679849E0,5.405259132E-1,7.965624332E0,4.284035683E0,9.060700911E0
1.594664953E0,-1.504615545E0,8.943432808E0,5.321064472E0,1.051487449E1
1.599650006E0,-4.452105045E0,9.392100334E0,5.919049740E0,1.196110103E1
1.604635058E0,-7.468410969E0,9.716773987E0,4.461925507E0,1.304230188E1
1.609618860E0,-8.294507980E0,1.076615715E1,2.884845734E0,1.389357180E1
1.614603860E0,-8.374232292E0,1.235825348E1,1.514873385E0,1.500496707E1
1.619588860E0,-8.511753082E0,1.169120979E1,-1.409627080E0,1.453001636E1
1.624573860E0,-6.941588879E0,7.649067879E0,-5.939250946E0,1.191505759E1
1.629562922E0,-5.688868999E0,3.753454685E0,-7.983685493E0,1.049718470E1
1.634548183E0,-6.222086906E0,3.505652905E0,-7.262195587E0,1.018545298E1
1.639533339E0,-6.692221642E0,2.655726910E0,-6.673124313E0,9.816786848E0
1.644518599E0,-4.582242966E0,-1.006182671E0,-3.351198196E0,5.765404020E0
1.649508131E0,-2.553215504E0,-3.919206619E0,1.307008266E0,4.856682051E0
1.654493547E0,-2.922555447E0,-3.307991982E0,-5.551906586E0,7.092799731E0
1.659478964E0,-1.052566051E0,-6.243454933E0,-7.581237793E0,9.877438497E0
1.664464381E0,1.042752028E0,-8.843247414E0,-5.320947647E0,1.037317890E1
1.669450110E0,-5.157177448E-1,-8.684221268E0,-3.593180895E0,9.412364887E0
1.674435526E0,-5.930189610E0,-4.300586700E0,-3.493960142E0,8.116030572E0
1.679420943E0,-6.413933754E0,-6.764706612E0,-1.444298506E0,9.433228499E0
1.684406412E0,-6.823023796E0,-8.941107750E0,-1.112887144E0,1.130201660E1
1.689380787E0,-1.485279083E0,-1.770847321E1,-2.717980146E0,1.797730495E1
1.694365683E0,9.613862038E0,-3.989022064E1,-6.506676197E0,4.154507048E1
1.699350526E0,1.086293316E1,-5.083226013E1,-7.997402191E0,5.259163839E1
1.704335422E0,1.048522186E1,-4.469193268E1,-1.161275196E1,4.735150190E1
1.709325422E0,1.231107330E1,-1.860505676E1,-1.249312687E1,2.556929569E1
1.714310526E0,1.457439709E1,1.796430969E1,-1.346913338E0,2.317204455E1
1.719295683E0,1.817642212E1,-1.905818939E0,3.495745182E0,1.860738298E1
1.724280839E0,2.198059082E1,-2.980401611E1,2.050866127E0,3.708951066E1
1.729259276E0,2.045242119E1,-2.267640686E1,1.257189274E0,3.056307389E1
1.734244016E0,1.760733795E1,-1.002239037E1,3.815491199E0,2.061612552E1
1.739228860E0,1.486157036E1,-1.121895695E1,6.174018860E0,1.961758847E1
1.744213651E0,1.189439392E1,-1.417007828E1,8.954862595E0,2.055376582E1
1.749210422E0,8.270584106E0,-1.288173008E1,1.050853729E1,1.856800709E1
1.754195787E0,3.279384375E0,-9.445264816E0,8.041204453E0,1.283075829E1
1.759181203E0,4.087632895E-1,-6.374528885E0,3.861121655E0,7.463910929E0
1.764166620E0,-7.841921449E-1,-3.637012482E0,1.269479036E0,3.931207720E0
1.769133599E0,-1.489391923E0,-1.209907532E0,-4.757900238E-1,1.977002955E0
1.774118078E0,-3.412789345E0,3.006649494E0,3.765664101E-1,4.563866185E0
1.779102558E0,-5.176526070E0,3.591883659E0,1.898200035E0,6.580365776E0
1.784087037E0,-5.469951630E0,1.557528019E0,3.214435577E0,6.532905972E0
1.789079693E0,-6.128407955E0,1.828234196E0,3.989201069E0,7.537476335E0
1.794064589E0,-6.241003990E0,2.195972919E0,4.532353878E0,8.019642108E0
1.799049485E0,-5.662475586E0,4.010066986E-1,3.713326931E0,6.783305465E0
1.804034328E0,-5.323355198E0,2.296157837E0,4.205432892E0,7.162130771E0
1.809024745E0,-5.619725227E0,4.681619167E0,5.335105896E0,9.053299099E0
1.814009849E0,-4.795933723E0,4.790704727E0,5.621067524E0,8.806147408E0
1.818995058E0,-2.993285656E0,2.952850342E0,5.390981197E0,6.836794748E0
1.823980214E0,-2.787453651E0,4.229395390E0,6.291804790E0,8.077406189E0
1.828967766E0,-3.548418045E0,6.540428162E0,7.441064358E0,1.052320816E1
1.833953078E0,-4.950906277E0,8.847623825E0,8.219174385E0,1.305169521E1
1.838938339E0,-5.907075882E0,1.111651516E1,9.743170738E0,1.591853733E1
1.843923599E0,-7.109684944E0,1.371117783E1,1.303421307E1,2.020976812E1
1.848907245E0,-7.876771450E0,1.524640465E1,1.296945381E1,2.151053498E1
1.853892453E0,-8.428130150E0,1.580937767E1,1.037837601E1,2.070460066E1
1.858877662E0,-8.180901527E0,1.619614410E1,9.244598389E0,2.036430291E1
1.863862870E0,-7.021781445E0,1.604665184E1,9.139366150E0,1.975673211E1
1.868849745E0,-6.120999336E0,1.574521637E1,8.871454239E0,1.908091119E1
1.873835058E0,-5.652195930E0,1.568237591E1,6.895188808E0,1.803961922E1
1.878820318E0,-5.590653419E0,1.523197556E1,4.520665169E0,1.684354175E1
1.883805631E0,-5.960849762E0,1.417568398E1,3.490393877E0,1.576910256E1
1.888785578E0,-7.035774708E0,1.275333405E1,1.616790295E0,1.465481716E1
1.893770631E0,-8.459777832E0,1.092187405E1,-1.919298172E0,1.394771950E1
1.898755631E0,-8.260788918E0,8.336985588E0,-6.095810890E0,1.322516059E1
1.903740683E0,-4.451243877E0,6.291886330E0,-9.501134872E0,1.223409046E1
1.908735006E0,4.633425474E-1,5.205161572E0,-1.223127174E1,1.330084215E1
1.913720474E0,4.076590061E0,3.644556522E0,-1.344724369E1,1.451653339E1
1.918705995E0,5.973668098E0,1.988817215E0,-1.552642822E1,1.675440473E1
1.923691464E0,6.035419941E0,6.542234421E-1,-1.850905418E1,1.947920401E1
1.928666099E0,4.952114582E0,-5.330848694E-1,-1.989445305E1,2.050845875E1
1.933651047E0,2.661200047E0,-1.215944290E0,-1.580918980E1,1.607765494E1
1.938635995E0,-1.944066525E0,-8.695983887E-2,-1.517791748E-1,1.951920486E0
1.943620943E0,-6.932064533E0,2.964622974E0,1.915205574E1,2.058260788E1
1.948609745E0,-1.043595505E1,6.455015659E0,2.649324036E1,2.919705755E1
1.953594849E0,-1.257408905E1,8.484996796E0,2.150775909E1,2.631893971E1
1.958580006E0,-1.555314064E1,8.430159569E0,1.524401379E1,2.335268144E1
1.963565110E0,-1.899530792E1,7.430292130E0,1.001309872E1,2.272208419E1
1.968551047E0,-2.093094254E1,6.309036732E0,5.492084503E0,2.254043682E1
1.973536203E0,-2.062804794E1,4.857256889E0,5.483932972E0,2.189024503E1
1.978521360E0,-1.767022896E1,2.693606377E0,8.246120453E0,1.968479132E1
1.983506568E0,-1.471910381E1,1.457353592E0,1.026249027E1,1.800262767E1
1.988478964E0,-1.244813061E1,8.352789879E-1,1.116549969E1,1.674282025E1
1.993463547E0,-1.059662914E1,-1.036996841E-1,1.136302567E1,1.553762064E1
1.998448078E0,-8.917218208E0,-1.631264687E0,1.142541695E1,1.458485370E1
2.003432610E0,-7.297568321E0,-3.836055756E0,1.148165226E1,1.413499791E1
2.008433339E0,-5.170121193E0,-7.010390282E0,9.064487457E0,1.257142227E1
2.013418703E0,-2.755627871E0,-1.045209312E1,5.430763245E0,1.209681467E1
2.018404016E0,-1.479639649E0,-1.278977489E1,4.215620041E0,1.354766134E1
2.023389381E0,-1.120872498E-1,-1.498115253E1,2.809704781E0,1.524276667E1
2.028377974E0,3.182904005E0,-1.744704437E1,1.843964219E0,1.783060401E1
2.033363443E0,8.016624451E0,-2.009629440E1,2.695772409E0,2.180354341E1
2.038348964E0,1.224934006E1,-2.274132538E1,3.085207701E0,2.601408692E1
2.043334433E0,1.608507919E1,-2.452964020E1,2.176711082E0,2.941379085E1
2.048307453E0,1.861077309E1,-2.507402039E1,1.539279103E0,3.126398492E1
2.053292349E0,1.858304405E1,-2.418709564E1,8.517568111E-1,3.051344968E1
2.058277193E0,1.602041054E1,-2.091679764E1,6.860659122E-1,2.635596069E1
2.063262037E0,1.354834938E1,-1.757207489E1,1.716181159E0,2.225490653E1
2.068256464E0,1.149292088E1,-1.562086678E1,3.157988548E0,1.964870481E1
2.073241828E0,9.052878380E0,-1.389813900E1,4.157963276E0,1.709975243E1
2.078227193E0,7.644312859E0,-1.266730499E1,4.766261101E0,1.554391777E1
2.083212558E0,5.853871822E0,-1.192057991E1,2.959100246E0,1.360603965E1
2.088189381E0,3.463485479E0,-1.115388966E1,-3.314210176E-1,1.168395592E1
2.093174328E0,8.583331704E-1,-1.023544693E1,-3.588866711E0,1.088030670E1
2.098159224E0,-1.533760309E0,-9.380350113E0,-6.882709503E0,1.173520682E1
2.103144120E0,-4.100026131E0,-8.518158913E0,-9.573019981E0,1.345406842E1
2.108130735E0,-6.125277519E0,-7.486606598E0,-1.013463402E1,1.400996466E1
2.113115787E0,-7.009014606E0,-6.863331795E0,-9.059513092E0,1.335314145E1
2.118100787E0,-7.032732964E0,-6.823014259E0,-7.742216587E0,1.248818538E1
2.123085839E0,-5.981290817E0,-7.547255516E0,-6.617535591E0,1.168454890E1
2.128070578E0,-2.914541721E0,-8.729984283E0,-5.542080879E0,1.074345566E1
2.133055526E0,2.229526043E-1,-9.523309708E0,-5.455123901E0,1.097731809E1
2.138040578E0,2.496643305E0,-9.561244965E0,-5.359675407E0,1.124174157E1
2.143025578E0,4.226615429E0,-9.088125229E0,-5.137623310E0,1.126292464E1
2.148007193E0,5.445669174E0,-8.173683167E0,-5.697731972E0,1.135467124E1
2.152992037E0,6.469467163E0,-6.854014397E0,-6.781180382E0,1.161102606E1
2.157976828E0,7.021862030E0,-5.088634491E0,-8.528762817E0,1.216308113E1
2.162961672E0,6.941213608E0,-2.624825478E0,-9.346756935E0,1.193448869E1
2.167952193E0,6.564002991E0,1.079339981E-1,-8.173312187E0,1.048335906E1
2.172937349E0,6.330387592E0,2.816714764E0,-7.192280769E0,9.986820905E0
2.177922453E0,6.218264580E0,5.228410244E0,-7.444677830E0,1.101936096E1
2.182907558E0,6.410023212E0,7.061594009E0,-8.102055550E0,1.251390473E1
2.187891203E0,7.525351048E0,8.165097237E0,-9.887693405E0,1.486829520E1
2.192876203E0,8.895639420E0,8.863924980E0,-1.199993896E1,1.736951646E1
2.197861256E0,9.560236931E0,9.479725838E0,-1.291370583E1,1.865548526E1
2.202846308E0,9.288432121E0,9.498988152E0,-1.179900646E1,1.776857621E1
2.207832922E0,8.450402260E0,9.101629257E0,-9.414075851E0,1.558440816E1
2.212818026E0,7.462908268E0,8.596169472E0,-6.303795815E0,1.301256973E1
2.217803131E0,6.342304707E0,8.104347229E0,-3.379444838E0,1.083170903E1
2.222788235E0,5.344144344E0,7.969937325E0,-1.684829831E0,9.742609060E0
2.227767297E0,4.724225521E0,8.225433350E0,-1.521393538E0,9.606804820E0
2.232752141E0,4.270014763E0,8.946293831E0,-2.483247757E0,1.021937957E1
2.237736933E0,4.070808411E0,9.653518677E0,-3.823849678E0,1.115274542E1
2.242721724E0,4.014715195E0,9.945689201E0,-4.678453922E0,1.170139320E1
2.247715318E0,3.972870827E0,9.615810394E0,-4.495427132E0,1.133385977E1
2.252700578E0,3.818697453E0,8.894522667E0,-3.243444681E0,1.020857077E1
2.257685839E0,4.151912689E0,7.914024353E0,-1.629881501E0,9.084419307E0
2.262671099E0,5.355381966E0,6.763331413E0,-7.326247692E-1,8.657915849E0
2.267647558E0,6.705834866E0,5.521998405E0,-1.559828967E-1,8.688211456E0
2.272632401E0,7.815900803E0,4.147484303E0,3.742502928E-1,8.856071063E0
2.277617141E0,8.865610123E0,2.494375229E0,5.671615005E-1,9.227276023E0
2.282602037E0,9.822625160E0,6.226596832E-1,-2.753040195E-1,9.846190249E0
2.287595526E0,1.054098988E1,-1.566045761E0,-2.129449844E0,1.086736047E1
2.292580787E0,1.069029427E1,-3.771569252E0,-3.170544863E0,1.177112912E1
2.297566047E0,1.028580761E1,-5.550873756E0,-1.394354939E0,1.177090750E1
2.302551308E0,9.534439087E0,-6.954979897E0,9.922681451E-1,1.184322043E1
2.307528756E0,8.746494293E0,-8.676154137E0,2.787534714E0,1.263119800E1
2.312513651E0,7.229722977E0,-1.113048172E1,4.336576462E0,1.396289415E1
2.317498495E0,5.437291145E0,-1.365375805E1,4.003087044E0,1.523200413E1
2.322483339E0,2.982505322E0,-1.498213768E1,1.505922079E0,1.535016576E1
2.327471256E0,-2.785847187E-1,-1.564993191E1,-1.147898674E0,1.569444645E1
2.332456308E0,-3.512958288E0,-1.649432373E1,-3.455885649E0,1.721472442E1
2.337441308E0,-5.617773056E0,-1.775118446E1,-4.419486046E0,1.913624260E1
2.342426308E0,-6.718311310E0,-1.921805954E1,-3.979259968E0,2.074377085E1
2.347412766E0,-7.632568836E0,-2.044846344E1,-2.590066910E0,2.197963172E1
2.352397870E0,-7.628028393E0,-2.201893616E1,-5.545401573E-2,2.330286338E1
2.357382922E0,-7.062317848E0,-2.385575104E1,2.853522301E0,2.504227986E1
2.362367974E0,-7.870256424E0,-2.657762146E1,1.543550491E0,2.776136608E1
2.367360110E0,-8.443775177E0,-2.379310036E1,1.250369453E1,2.817359297E1
2.372345526E0,-1.089667416E1,-2.183348083E1,1.502787113E1,2.865790125E1
2.377330995E0,-1.057492733E1,-2.084400940E1,9.727834702E0,2.531664638E1
2.382316412E0,-8.091140747E0,-1.715356827E1,4.122192383E0,1.940886223E1
2.387297974E0,-4.896237850E0,-1.222657776E1,1.107142210E0,1.321696306E1
2.392283235E0,-5.408582687E-1,-7.273885727E0,2.471620798E0,7.701353816E0
2.397268443E0,1.130209923E0,-4.359608650E0,3.191189766E0,5.519715045E0
2.402253703E0,3.097732663E-1,-1.700272560E0,3.834324837E0,4.205821348E0
2.407232714E0,-4.747940302E-1,-2.998085022E-1,5.252545834E0,5.282475958E0
2.412217610E0,-2.769443095E-1,-5.523014069E-2,4.647753239E0,4.656324590E0
2.417202558E0,5.769504905E-1,1.342859268E-1,4.862259388E0,4.898210993E0
2.422187506E0,1.180985451E0,6.224803925E-1,5.059194088E0,5.232365937E0
2.427192089E0,2.269092083E0,5.899810791E-2,5.702719688E0,6.137855611E0
2.432177974E0,3.539226055E0,-9.129428864E-1,4.969153404E0,6.168636100E0
2.437163912E0,4.290686131E0,-1.715008736E0,4.042996407E0,6.139793350E0
2.442149797E0,4.552271843E0,-2.156784058E0,4.886264801E0,7.017868630E0
2.447124433E0,4.609471798E0,-1.878403664E0,5.764487267E0,7.616097690E0
2.452109797E0,3.241183758E0,-3.879098892E-1,5.810201645E0,6.664397151E0
2.457095162E0,1.101046443E0,1.431264877E0,6.009364128E0,6.274813116E0
2.462080526E0,-7.146964073E-1,2.820919514E0,6.344758987E0,6.980282549E0
2.467066724E0,-2.170115232E0,3.895893574E0,6.668343544E0,8.022106487E0
2.472052089E0,-3.795809746E0,5.071771622E0,7.058518887E0,9.484393912E0
2.477037453E0,-5.956500053E0,6.318396568E0,7.591877460E0,1.153423736E1
2.482022870E0,-7.924157143E0,7.515086174E0,7.933284283E0,1.349836235E1
2.486998547E0,-9.381441116E0,8.719502449E0,8.246485710E0,1.523304589E1
2.491983443E0,-1.067983437E1,1.011601639E1,8.550833702E0,1.701497595E1
2.496968339E0,-1.090403271E1,1.125082684E1,9.274093628E0,1.820680769E1
2.501953235E0,-1.023930550E1,1.201076984E1,1.033334351E1,1.886478087E1
2.506941203E0,-9.656510353E0,1.267251778E1,1.199483490E1,1.994284241E1
2.511926308E0,-9.687564850E0,1.343598843E1,1.390835762E1,2.162908018E1
2.516911360E0,-1.058261776E1,1.383689117E1,1.510282326E1,2.305529497E1
2.521896412E0,-1.222299290E1,1.425655937E1,1.412118530E1,2.349593401E1
2.526885787E0,-1.269428635E1,1.477926636E1,1.340313148E1,2.364773887E1
2.531871047E0,-1.257577991E1,1.617454910E1,1.305921555E1,2.429628346E1
2.536856360E0,-1.263835907E1,1.799895859E1,1.104999447E1,2.461286265E1
2.541841620E0,-1.266133976E1,1.951291847E1,8.417144775E0,2.473685182E1
2.546816151E0,-1.313160515E1,2.101742744E1,3.945983410E0,2.509466268E1
2.551800891E0,-1.290201187E1,2.120572662E1,-2.850484848E-1,2.482389987E1
2.556785631E0,-1.101382160E1,1.938453102E1,-2.707219601E0,2.245870315E1
2.561770370E0,-6.276458263E0,1.544839287E1,-4.340555668E0,1.723041480E1
2.566758235E0,8.183588982E-1,1.038596439E1,-5.490552425E0,1.177642278E1
2.571743131E0,7.689591408E0,5.961940289E0,-5.670341492E0,1.126176366E1
2.576728026E0,1.309313393E1,2.876712322E0,-8.610054016E0,1.593231496E1
2.581712922E0,1.542306328E1,1.027344704E0,-1.405369377E1,2.089096998E1
2.586702245E0,1.424825287E1,2.534236908E-1,-1.950009346E1,2.415223754E1
2.591687401E0,9.882023811E0,8.424158096E-1,-1.996591759E1,2.229353996E1
2.596672506E0,3.871155262E0,2.374419689E0,-1.183886719E1,1.268000348E1
2.601657662E0,-1.701637983E0,3.851313114E0,-2.771053314E-1,4.219593807E0
2.606641464E0,-6.271615505E0,4.711538315E0,9.424076080E0,1.226152374E1
2.611626516E0,-9.655498505E0,4.487065315E0,1.370110798E1,1.735173670E1
2.616611568E0,-1.293107414E1,2.997082710E0,1.132519531E1,1.744864557E1
2.621596620E0,-1.634824944E1,4.970407486E-1,5.737788200E0,1.733304712E1
2.626579276E0,-1.674949074E1,-1.860717773E0,9.280780792E0,1.923903851E1
2.631564172E0,-1.520591640E1,-2.633519173E0,2.164715195E1,2.658485479E1
2.636549120E0,-1.621573067E1,-3.351096153E0,2.601777077E1,3.083997669E1
2.641534068E0,-1.761174583E1,-5.471796036E0,2.289461899E1,2.939860068E1
2.646524328E0,-1.598510742E1,-7.694355965E0,2.063894081E1,2.721566921E1
2.651509537E0,-1.051804543E1,-8.100621223E0,1.846996498E1,2.274618540E1
2.656494693E0,-6.628518581E0,-8.609942436E0,1.494576073E1,1.847820692E1
2.661479901E0,-4.095218658E0,-1.037156677E1,9.895767212E0,1.490860228E1
2.666465891E0,-6.393401027E-1,-1.249282742E1,4.469423294E0,1.328364548E1
2.671451151E0,2.828450918E0,-1.436506462E1,1.312282085E-1,1.464146294E1
2.676436360E0,5.878560543E0,-1.592764759E1,-2.864959478E0,1.721788096E1
2.681421620E0,8.570692062E0,-1.746887589E1,-3.422534466E0,1.975682488E1
2.686393078E0,1.010424423E1,-1.860857773E1,-9.232456684E-1,2.119498288E1
2.691377610E0,1.038067722E1,-1.815684128E1,2.798218489E0,2.110116991E1
2.696362141E0,1.064486122E1,-1.646889877E1,6.179557800E0,2.056026828E1
2.701346724E0,1.086811543E1,-1.501960945E1,9.872648239E0,2.100413731E1
2.706341828E0,1.007544899E1,-1.418153000E1,1.215492630E1,2.122198621E1
2.711326933E0,8.377839088E0,-1.372728539E1,1.192617512E1,2.002149357E1
2.716311985E0,6.826319695E0,-1.397326660E1,8.789497375E0,1.786354064E1
2.721297037E0,6.318024635E0,-1.545862770E1,5.573510170E0,1.760541454E1
2.726282610E0,6.806271553E0,-1.740463638E1,3.278679371E0,1.897357211E1
2.731267766E0,6.614831924E0,-1.890671539E1,-1.178343177E0,2.006510356E1
2.736252818E0,6.111053944E0,-1.953987503E1,-6.636240005E0,2.152188138E1
2.741237922E0,5.478860855E0,-1.934062576E1,-9.707768440E0,2.232304839E1
2.746231151E0,4.341568947E0,-1.800262070E1,-1.153811646E1,2.181906745E1
2.751216620E0,2.539144516E0,-1.608454895E1,-1.226998806E1,2.038903080E1
2.756202141E0,-1.260367632E-1,-1.383979130E1,-1.138704014E1,1.792262234E1
2.761187610E0,-2.732880592E0,-1.148756695E1,-8.546551704E0,1.457656944E1
2.766160526E0,-4.866355896E0,-9.170635223E0,-6.466560364E0,1.223104137E1
2.771145370E0,-5.785893917E0,-7.345540047E0,-6.629662991E0,1.146237141E1
2.776130266E0,-5.438773632E0,-6.417720795E0,-6.912600517E0,1.088813321E1
2.781115162E0,-4.177337646E0,-5.904502869E0,-6.673755646E0,9.841357546E0
2.786097037E0,-2.725455284E0,-5.411745071E0,-8.137064934E0,1.014529038E1
2.791081776E0,-1.297779441E0,-4.407139778E0,-9.721399307E0,1.075233542E1
2.796066464E0,-2.276699543E-1,-2.851853371E0,-1.187681198E1,1.221652832E1
2.801051203E0,3.166654110E-1,-6.337308884E-1,-1.465289497E1,1.467001101E1
2.806043756E0,7.535184622E-1,1.479114532E0,-1.579675770E1,1.588373771E1
2.811028912E0,1.403232336E0,3.051955223E0,-1.560292149E1,1.596040885E1
2.816014016E0,2.774931908E0,4.188217640E0,-1.462328529E1,1.546227302E1
2.820999120E0,4.961451530E0,4.842926979E0,-1.387072277E1,1.550699498E1
2.826001308E0,7.337668419E0,5.203337193E0,-1.269380951E1,1.555792067E1
2.830987245E0,9.752516747E0,5.580833912E0,-1.068284321E1,1.550420682E1
2.835973183E0,1.242678547E1,5.860629082E0,-6.504195213E0,1.520120146E1
2.840959172E0,1.447004318E1,6.024098396E0,-6.877269745E-1,1.568900505E1
2.845925526E0,1.491423225E1,6.437687874E0,5.435309887E0,1.712952838E1
2.850910526E0,1.378361416E1,7.347082138E0,9.295719147E0,1.817630407E1
2.855895474E0,1.212676334E1,8.815689087E0,9.656954765E0,1.783343878E1
2.860880422E0,1.090767193E1,1.028772926E1,7.352516651E0,1.669952638E1
2.865870058E0,1.043535042E1,1.162449551E1,3.751720667E0,1.606551717E1
2.870855266E0,1.051007652E1,1.269511318E1,-2.873191237E-2,1.648115387E1
2.875840422E0,1.067603970E1,1.333322525E1,-3.247763634E0,1.738679636E1
2.880825683E0,1.084371376E1,1.335357380E1,-5.026106834E0,1.792109961E1
2.885805058E0,1.043846512E1,1.237752724E1,-5.383887291E0,1.706314675E1
2.890789953E0,9.553949356E0,1.113580990E1,-4.808628559E0,1.544043779E1
2.895774901E0,8.323210716E0,1.019964600E1,-3.275328398E0,1.356600130E1
2.900759797E0,7.138997555E0,9.639282227E0,-1.902445555E0,1.214497209E1
2.905737558E0,6.565382957E0,9.171243668E0,-1.301631451E0,1.135386314E1
2.910722089E0,6.855391502E0,8.525067329E0,-1.823037028E0,1.109038456E1
2.915706672E0,6.997906208E0,7.988115311E0,-3.375800371E0,1.114346022E1
2.920691203E0,6.949646950E0,7.620004654E0,-4.380512714E0,1.120495227E1
2.925683860E0,6.407691479E0,7.197896004E0,-5.092994213E0,1.089985353E1
2.930668808E0,5.175510883E0,6.867133141E0,-5.557809830E0,1.023878316E1
2.935653756E0,3.822472095E0,6.430811882E0,-4.853940964E0,8.917812359E0
2.940638756E0,2.955282688E0,5.656498909E0,-3.009800196E0,7.056101820E0
2.945621724E0,2.542481422E0,4.632745266E0,-7.355262041E-1,5.335498035E0
2.950606568E0,2.645200968E0,3.240119457E0,4.456351399E-1,4.206429951E0
2.955591412E0,3.113239288E0,1.347433090E0,9.741115570E-2,3.393718275E0
2.960576308E0,3.754514217E0,-1.073633194E0,-9.929001331E-3,3.905017776E0
2.965565110E0,4.535428047E0,-3.774370193E0,1.152668715E0,6.012039845E0
2.970550162E0,5.450012684E0,-6.513474464E0,2.816892624E0,8.947785866E0
2.975535214E0,6.154184341E0,-9.224138260E0,3.295175076E0,1.156792507E1
2.980520318E0,6.362936020E0,-1.209048080E1,2.963952541E0,1.398040398E1
2.985505787E0,5.789654732E0,-1.513581276E1,2.003504753E0,1.632871584E1
2.990490839E0,4.237982750E0,-1.826873016E1,-3.733634949E-1,1.875756914E1
2.995475943E0,1.767679334E0,-2.114021301E1,-3.591431141E0,2.151584705E1
3.000460995E0,-1.186132312E0,-2.344791222E1,-6.675639153E0,2.440851604E1
3.005445370E0,-4.784813881E0,-2.503612137E1,-7.718785286E0,2.663233868E1
3.010430422E0,-8.417210579E0,-2.654697418E1,-6.766175270E0,2.865959525E1
3.015415526E0,-1.050704575E1,-2.839608765E1,-5.611813068E0,3.079331502E1
3.020400578E0,-1.185357666E1,-3.068527603E1,-2.650591373E0,3.300180418E1
3.025391412E0,-1.234056759E1,-3.104316330E1,1.553065181E0,3.344218306E1
3.030376776E0,-1.106448936E1,-2.994245720E1,4.075186253E0,3.218044144E1
3.035362089E0,-8.855431557E0,-2.872416687E1,4.497063637E0,3.039276249E1
3.040347401E0,-7.482681751E0,-2.701045990E1,3.256529808E0,2.821631543E1
3.045327870E0,-6.317859650E0,-2.483418274E1,3.292454720E0,2.583587121E1
3.050312974E0,-4.793504238E0,-2.165628624E1,3.721340656E0,2.249046004E1
3.055298078E0,-4.317154884E0,-1.712391281E1,2.769522429E0,1.787558309E1
3.060283183E0,-3.283198118E0,-1.275544548E1,2.377596378E0,1.338408547E1
3.065262662E0,-8.738630265E-2,-9.739709854E0,4.450898170E0,1.070887851E1
3.070247453E0,2.496653080E0,-7.198987961E0,5.964162350E0,9.676256342E0
3.075232245E0,4.168650150E0,-4.976299286E0,5.177711010E0,8.303607045E0
3.080217037E0,5.772038937E0,-3.511120796E0,6.066499710E0,9.080023208E0
3.085211985E0,7.734755039E0,-2.848446846E0,8.754712105E0,1.202435316E1
3.090197297E0,9.665267944E0,-2.492673874E0,9.740268707E0,1.394645697E1
3.095182662E0,1.100152779E1,-2.028924942E0,9.060792923E0,1.439611470E1
3.100167974E0,1.160398674E1,-1.339344025E0,8.217920303E0,1.428217647E1
3.105267974E0,1.061648655E1,-3.147592545E-1,6.915352821E0,1.267402717E1
3.110342037E0,8.199849129E0,1.244533062E0,6.632175922E0,1.061942304E1
3.115336933E0,4.722356796E0,3.290142536E0,7.051331520E0,9.102030973E0
3.120331828E0,1.925582290E-1,5.805901527E0,7.584375381E0,9.553445512E0
3.125236828E0,-4.435024261E0,8.093637466E0,8.210577011E0,1.235273178E1
3.130141828E0,-8.612974167E0,9.715548515E0,8.678846359E0,1.561722066E1
3.135046828E0,-1.179193687E1,1.099766541E1,8.724582672E0,1.833348746E1
3.140022193E0,-1.368998337E1,1.184355354E1,8.909629822E0,2.017589920E1
3.145036828E0,-1.507431221E1,1.243429661E1,9.424435616E0,2.169485209E1
3.150020318E0,-1.618100739E1,1.253033447E1,1.026557350E1,2.289576994E1
3.155003860E0,-1.765003967E1,1.258638382E1,1.285538673E1,2.520321262E1
3.159987349E0,-1.906000328E1,1.288142967E1,1.680435181E1,2.848861518E1
3.164962766E0,-2.043708038E1,1.323613548E1,1.952247047E1,3.120891524E1
3.169945839E0,-2.157593727E1,1.420188332E1,2.016225243E1,3.276783456E1
3.174928964E0,-2.106789780E1,1.557228756E1,1.978449821E1,3.282954199E1
3.179912037E0,-1.999036789E1,1.732233047E1,1.786655045E1,3.192008092E1
3.184908443E0,-1.901869392E1,1.862816620E1,1.556317520E1,3.083718075E1
3.189892193E0,-1.795202827E1,1.929770660E1,1.202827835E1,2.897164613E1
3.194875995E0,-1.601997185E1,1.934281349E1,8.187112808E0,2.641614559E1
3.199859693E0,-1.375661278E1,1.879151154E1,4.869319916E0,2.379234283E1
3.204847141E0,-1.163011646E1,1.721896744E1,2.524019003E0,2.093139079E1
3.209831151E0,-9.955200195E0,1.539585495E1,1.429059029E0,1.838968652E1
3.214815110E0,-8.060092926E0,1.364111900E1,5.094978809E-1,1.585259643E1
3.219799016E0,-5.008939266E0,1.157472420E1,2.564699650E-1,1.261465377E1
3.224796099E0,-8.978952169E-1,8.973123550E0,5.751829147E-1,9.036260148E0
3.229780735E0,3.528948784E0,6.333959103E0,6.974482536E-1,7.284157570E0
3.234765370E0,7.526955128E0,3.782289028E0,-1.832262278E0,8.620785860E0
3.239749953E0,1.132767105E1,1.306704044E0,-9.854723930E0,1.507113767E1
3.244725370E0,1.441770744E1,-7.967519760E-1,-2.308842087E1,2.723197165E1
3.249709485E0,1.296563816E1,-2.060045242E0,-3.284611511E1,3.537257182E1
3.254693651E0,7.494327068E0,-2.334958076E0,-3.372061157E1,3.462219826E1
3.259677766E0,1.879829288E0,-2.056171417E0,-2.401640701E1,2.417745654E1
3.264678860E0,-1.896358132E0,-9.591226578E-1,-6.097136497E0,6.456869513E0
3.269663860E0,-4.982260227E0,1.077652931E0,1.115635300E1,1.226574356E1
3.274648808E0,-7.140137672E0,2.687372684E0,2.144717407E1,2.276367311E1
3.279633808E0,-9.092171669E0,2.730113983E0,2.485240555E1,2.660381870E1
3.284613078E0,-1.308913422E1,2.484989166E-1,2.240381622E1,2.594837505E1
3.289597766E0,-1.766581917E1,-3.937743187E0,1.826686668E1,2.571508131E1
3.294582506E0,-2.006448555E1,-6.058132172E0,1.875396919E1,2.812464944E1
3.299567193E0,-2.080896950E1,-6.639127731E0,2.684682465E1,3.460987174E1
3.304556047E0,-1.969037247E1,-8.444679260E0,2.866544342E1,3.578730253E1
3.309540943E0,-1.541093922E1,-1.047171116E1,2.385025597E1,3.026530178E1
3.314525839E0,-9.221419334E0,-9.776291847E0,2.013456917E1,2.420767094E1
3.319510735E0,-5.022038937E0,-7.532243729E0,1.662502861E1,1.893005935E1
3.324489485E0,-2.763577223E0,-5.979274750E0,1.275805187E1,1.435816747E1
3.329474068E0,-8.566890359E-1,-5.164617538E0,9.711271286E0,1.103249656E1
3.334458651E0,1.091168761E0,-5.111057281E0,7.037902832E0,8.766164046E0
3.339443235E0,3.750742674E0,-6.353381157E0,4.114496231E0,8.447638840E0
3.344425943E0,7.051880836E0,-8.768740654E0,2.039294720E0,1.143584535E1
3.349410422E0,1.061692619E1,-1.226596451E1,-9.607405663E-1,1.625103165E1
3.354394953E0,1.377336979E1,-1.662367630E1,-5.289393902E0,2.222678602E1
3.359379485E0,1.487821293E1,-1.887994766E1,-5.617913723E0,2.468551394E1
3.364377766E0,1.523790073E1,-1.914891052E1,-5.073425770E-1,2.447716874E1
3.369362922E0,1.501960564E1,-1.935330963E1,3.547848940E0,2.475331047E1
3.374348078E0,1.358151054E1,-2.007750320E1,3.286132336E0,2.446144373E1
3.379333287E0,1.168263817E1,-2.078132248E1,2.400481939E0,2.396058664E1
3.384314276E0,9.107895851E0,-2.135908127E1,9.613679647E-1,2.323980094E1
3.389299224E0,4.590779781E0,-2.186546707E1,-2.437166691E0,2.247473450E1
3.394284224E0,-2.920931578E-1,-2.198178864E1,-6.298399448E0,2.286819157E1
3.399269224E0,-5.499324799E0,-2.008233261E1,-9.271329880E0,2.279254734E1
3.404249589E0,-8.891019821E0,-1.723935127E1,-1.167244816E1,2.263827537E1
3.409234328E0,-9.408250809E0,-1.476278114E1,-1.309784222E1,2.186340232E1
3.414219068E0,-7.524356365E0,-1.283523369E1,-1.264326000E1,1.952463024E1
3.419203808E0,-3.169514894E0,-1.171478462E1,-1.112582684E1,1.646408291E1
3.424191933E0,1.947982073E0,-1.124039078E1,-9.756004333E0,1.501068418E1
3.429176828E0,5.813100815E0,-1.095242500E1,-8.068082809E0,1.479329966E1
3.434161776E0,8.505936623E0,-1.077268791E1,-6.075093269E0,1.501028051E1
3.439146672E0,1.040396023E1,-9.844236374E0,-4.680137157E0,1.506834636E1
3.444143599E0,1.164871216E1,-7.748950005E0,-4.135885239E0,1.458918325E1
3.449129120E0,1.169995594E1,-4.884169579E0,-4.523410797E0,1.346125279E1
3.454114641E0,1.084326935E1,-1.573059082E0,-4.944310665E0,1.202069936E1
3.459100162E0,9.895469666E0,1.796477318E0,-3.807835102E0,1.075394155E1
3.464076985E0,8.691997528E0,4.958329678E0,-1.360788226E0,1.009889097E1
3.469062089E0,7.698532104E0,7.863846779E0,8.601562977E-1,1.103844879E1
3.474047193E0,7.274464130E0,1.023773766E1,2.357427120E0,1.277836309E1
3.479032297E0,7.639722347E0,1.201605606E1,1.591266155E0,1.432770354E1
3.484010370E0,8.789834023E0,1.329594994E1,-3.249083519E0,1.626653038E1
3.488995110E0,1.055660629E1,1.359403896E1,-8.169453621E0,1.905202887E1
3.493979849E0,1.208180428E1,1.293684196E1,-1.079823017E1,2.073484144E1
3.498964589E0,1.252984619E1,1.177354813E1,-1.122152805E1,2.053134611E1
3.503951985E0,1.227107716E1,1.044233131E1,-1.051302814E1,1.923916263E1
3.508936828E0,1.162768364E1,9.395479202E0,-1.016834354E1,1.807963680E1
3.513921724E0,1.095609283E1,8.475101471E0,-1.000455475E1,1.708667407E1
3.518906620E0,1.009899235E1,7.762782097E0,-9.305868149E0,1.577496797E1
3.523895631E0,9.232246399E0,7.191474438E0,-8.218911171E0,1.430042583E1
3.528880735E0,8.176799774E0,6.739480972E0,-6.342186928E0,1.234925072E1
3.533865839E0,6.934755325E0,6.494914055E0,-4.300037861E0,1.042904912E1
3.538850891E0,5.721131325E0,6.848988056E0,-2.973831654E0,9.406575133E0
3.543836256E0,4.742413521E0,7.658985138E0,-2.745964289E0,9.417582451E0
3.548821308E0,4.648231983E0,8.402316093E0,-3.637808323E0,1.026833120E1
3.553806412E0,5.250937462E0,8.734874725E0,-4.974676132E0,1.134097806E1
3.558791516E0,6.068157196E0,8.705537796E0,-6.477917671E0,1.243271239E1
3.563764641E0,6.819388390E0,8.045022964E0,-7.964473724E0,1.321587281E1
3.568749172E0,6.923529148E0,6.921630859E0,-8.893994331E0,1.322676698E1
3.573733651E0,6.163044453E0,6.014435768E0,-9.809055328E0,1.305274381E1
3.578718078E0,5.147545815E0,5.281664371E0,-9.732257843E0,1.221106257E1
3.583719328E0,4.581171989E0,4.612291813E0,-7.331418037E0,9.798472483E0
3.588704693E0,4.849658012E0,3.969555378E0,-3.280278921E0,7.073668252E0
3.593690006E0,5.436347485E0,3.169026375E0,9.146322608E-1,6.358706968E0
3.598675318E0,5.676099300E0,1.765982628E0,3.241921663E0,6.771030496E0
3.603655422E0,5.919523716E0,-8.130245209E-1,3.555992365E0,6.953190030E0
3.608640526E0,6.422719955E0,-4.299100876E0,3.553835869E0,8.506664996E0
3.613625578E0,6.879337788E0,-8.388134956E0,3.910661221E0,1.153166803E1
3.618610631E0,6.584937572E0,-1.307556057E1,3.738302708E0,1.510981781E1
3.623604068E0,5.205489635E0,-1.820600891E1,2.741099596E0,1.913294305E1
3.628589537E0,2.901385307E0,-2.260516167E1,-8.748648167E-1,2.280738387E1
3.633575058E0,2.823719084E-1,-2.557608414E1,-5.949044228E0,2.626036826E1
3.638560526E0,-2.958053350E0,-2.744416237E1,-8.425956726E0,2.886050718E1
3.643540318E0,-5.715897083E0,-2.907705879E1,-7.763811111E0,3.063370024E1
3.648525474E0,-8.730444908E0,-2.997098160E1,-6.369514465E0,3.185986693E1
3.653510735E0,-1.099679375E1,-2.945756149E1,-6.135770321E0,3.203630876E1
3.658495891E0,-1.140823364E1,-2.898316193E1,-5.891595840E0,3.169987968E1
3.663487974E0,-1.151904964E1,-2.848118210E1,-5.096310616E0,3.114223210E1
3.668473547E0,-1.160310078E1,-2.755952072E1,-2.612828255E0,3.001642886E1
3.673459068E0,-1.107348156E1,-2.655529785E1,5.335385799E-1,2.877656166E1
3.678444641E0,-1.064647007E1,-2.589330673E1,3.825652599E0,2.825679168E1
3.683417349E0,-9.381573677E0,-2.546385574E1,7.332182884E0,2.811018996E1
3.688402245E0,-8.886665344E0,-2.473658943E1,7.811726093E0,2.742069916E1
3.693387193E0,-9.355620384E0,-2.317936325E1,7.909074783E0,2.621762723E1
3.698372037E0,-9.269989014E0,-2.066472626E1,7.997631550E0,2.401927805E1
3.703360162E0,-9.353557587E0,-1.713029480E1,7.283694267E0,2.083238444E1
3.708345266E0,-7.572875023E0,-1.366214085E1,7.034307003E0,1.713137483E1
3.713330318E0,-4.869058609E0,-1.077210903E1,5.905299187E0,1.321433401E1
3.718315370E0,-2.043824434E0,-7.967850685E0,6.713565826E0,1.061771298E1
3.723294224E0,1.917357445E-1,-5.321265221E0,9.428646088E0,1.082829595E1
3.728279016E0,1.208268642E0,-2.992491722E0,7.353580952E0,8.030571127E0
3.733263756E0,2.135976076E0,-1.632962227E0,7.536178589E0,8.001434069E0
3.738248495E0,2.294135809E0,-1.877517700E-1,7.984313011E0,8.309486392E0
3.743244953E0,1.857810974E0,1.253983974E0,1.030807877E1,1.054895375E1
3.748230318E0,1.488871813E0,2.707330704E0,1.084442997E1,1.127599398E1
3.753215683E0,1.328735352E0,3.997476578E0,1.081339264E1,1.160494795E1
3.758201047E0,2.390882969E-1,5.897618294E0,1.033059978E1,1.189791396E1
3.763177974E0,-1.847841501E0,7.765898228E0,1.024751377E1,1.298981262E1
3.768162870E0,-4.584214211E0,9.618540764E0,9.024766922E0,1.396344386E1
3.773147818E0,-8.419071198E0,1.219760418E1,6.009337425E0,1.599294982E1
3.778132766E0,-1.221701431E1,1.454607773E1,4.350679874E0,1.948774567E1
3.783110839E0,-1.524948788E1,1.650340652E1,4.669690132E0,2.295027916E1
3.788095474E0,-1.709056282E1,1.791439819E1,6.074457645E0,2.549337239E1
3.793080058E0,-1.824553299E1,1.902292633E1,7.072943687E0,2.729098263E1
3.798064641E0,-1.953815460E1,2.041180801E1,7.428443432E0,2.921580332E1
3.803064589E0,-2.105693436E1,2.182094193E1,7.354984760E0,3.120326572E1
3.808049953E0,-2.204913139E1,2.318131638E1,8.286787033E0,3.304857733E1
3.813035318E0,-2.180011940E1,2.422986603E1,1.024883556E1,3.416680032E1
3.818020683E0,-2.062236977E1,2.404554939E1,1.194124031E1,3.385356407E1
3.823011308E0,-1.889907837E1,2.257312393E1,1.279850101E1,3.210175564E1
3.827996933E0,-1.622698784E1,2.036868858E1,1.296228600E1,2.908985162E1
3.832982558E0,-1.322176361E1,1.833672523E1,1.295496368E1,2.605535664E1
3.837968183E0,-1.043224049E1,1.675209045E1,1.274775505E1,2.349402977E1
3.843068183E0,-8.320890427E0,1.543650818E1,1.188427162E1,2.118393057E1
3.848135735E0,-7.079334259E0,1.438356209E1,1.068614864E1,1.926648916E1
3.853130787E0,-6.289202690E0,1.360556126E1,9.328182220E0,1.765447114E1
3.858125891E0,-6.010677338E0,1.306162643E1,8.205151558E0,1.655472257E1
3.863030891E0,-6.059194565E0,1.280305099E1,7.073221684E0,1.583232196E1
3.867935891E0,-5.499447823E0,1.242147923E1,5.574892521E0,1.468388570E1
3.872848756E0,-4.038638115E0,1.167032242E1,5.224307537E0,1.340896761E1
3.877831985E0,-2.879781246E0,1.060566807E1,5.330851555E0,1.221438961E1
3.882828131E0,-1.277510166E0,9.159617424E0,4.433962345E0,1.025624910E1
3.887811985E0,8.422114849E-1,7.121674538E0,2.132820845E0,7.481743992E0
3.892795787E0,3.044846058E0,4.919293404E0,-1.555283785E0,5.990779812E0
3.897779693E0,5.829371929E0,2.553661346E0,-9.706202507E0,1.160659857E1
3.902761672E0,9.868169785E0,-9.795112610E-1,-2.379207039E1,2.577601270E1
3.907745422E0,1.330729675E1,-5.091013908E0,-3.100174332E1,3.411906590E1
3.912729172E0,1.302940845E1,-8.235908508E0,-2.847584915E1,3.238008120E1
3.917712974E0,8.515909195E0,-9.830825806E0,-2.260245705E1,2.607751733E1
3.922705578E0,1.255817175E0,-9.175921440E0,-5.442896843E0,1.074242696E1
3.927689797E0,-6.944136620E0,-7.914212227E0,2.021193886E1,2.278987189E1
3.932674016E0,-1.240131664E1,-1.231691933E1,2.372880745E1,2.947126497E1
3.937658183E0,-2.413395691E1,-2.956088257E1,9.607093811E0,3.935212708E1
3.942645839E0,-3.599784088E1,-4.321855545E1,3.164793253E0,5.633563703E1
3.947630214E0,-3.286818314E1,-3.938774872E1,1.386103916E1,5.313982140E1
3.952614589E0,-2.321589279E1,-3.665303802E1,2.530293846E1,5.022610446E1
3.957598964E0,-1.028005600E1,-3.708284760E1,3.232463455E1,5.025633429E1
3.962587401E0,6.607613087E0,-3.071364021E1,3.187045479E1,4.475169421E1
3.967571985E0,8.290239334E0,-1.611317444E1,2.086367989E1,2.763431919E1
3.972556568E0,1.264379025E-1,-3.171934128E0,1.111770058E1,1.156202486E1
3.977541151E0,-4.121811867E0,3.408176899E0,7.895334244E0,9.536315099E0
3.982523443E0,-4.333935261E0,7.112652779E0,7.752654076E0,1.137877276E1
3.987507974E0,-3.957897186E0,8.887384415E0,7.361310482E0,1.219997721E1
3.992492453E0,-3.954037189E0,9.644003868E0,7.149971008E0,1.263975103E1
3.997476881E0,-4.995959282E0,9.638578415E0,6.059459686E0,1.243297449E1
4.002478860E0,-5.961275101E0,8.157023430E0,4.882018089E0,1.122087041E1
4.007464224E0,-6.318819046E0,4.777259827E0,4.841336727E0,9.283761463E0
4.012449589E0,-6.476951599E0,-5.607595444E-1,7.536613464E0,9.953185209E0
4.017434953E0,-5.211802483E0,-7.645708084E0,8.325403214E0,1.244717140E1
4.022404172E0,-1.815914989E0,-1.515281105E1,6.557784081E0,1.661053166E1
4.027388703E0,1.809311390E0,-2.091274261E1,5.318617821E0,2.165419375E1
4.032373235E0,6.967784405E0,-2.633002663E1,3.574702263E0,2.746996210E1
4.037357818E0,1.063800049E1,-3.009485626E1,9.548794031E-1,3.193398225E1
4.042342193E0,1.229629326E1,-3.232842255E1,-1.094101369E-1,3.458811505E1
4.047326672E0,1.209285831E1,-3.250296783E1,-3.345584393E0,3.484068133E1
4.052311203E0,7.620360374E0,-2.793009186E1,-1.094271755E1,3.095000793E1
4.057295787E0,2.465231895E0,-2.204359818E1,-1.301215935E1,2.571602379E1
4.062284641E0,-2.655119896E0,-1.620675278E1,-1.357642937E1,2.130793119E1
4.067269433E0,-6.958692074E0,-1.054329014E1,-1.360330105E1,1.856432497E1
4.072254172E0,-9.449981689E0,-5.687079430E0,-1.182997417E1,1.617384665E1
4.077238964E0,-1.141273022E1,-1.596859932E0,-9.869613647E0,1.517266114E1
4.082223599E0,-1.332777691E1,1.604710579E0,-8.783557892E0,1.604230727E1
4.087208339E0,-1.353175735E1,3.489399433E0,-8.440181732E0,1.632547191E1
4.092193131E0,-1.100527573E1,4.057410717E0,-8.454179764E0,1.445862480E1
4.097177870E0,-6.278039455E0,3.709277630E0,-1.077155495E1,1.300764836E1
4.102167610E0,-3.926653266E-1,2.705528736E0,-1.595555496E1,1.618807604E1
4.107152610E0,4.740633965E0,2.220347881E0,-2.062235641E1,2.127639864E1
4.112137610E0,7.703610897E0,2.644957066E0,-2.103770447E1,2.255939778E1
4.117122610E0,1.032821083E1,3.165972710E0,-1.948307610E1,2.227746791E1
4.122115839E0,1.291473579E1,3.680385113E0,-1.673995590E1,2.146070266E1
4.127101256E0,1.596302986E1,4.306382656E0,-1.199989796E1,2.042941029E1
4.132086672E0,1.820648575E1,5.082056999E0,-6.512482643E0,1.999289516E1
4.137072089E0,2.136937904E1,4.921387196E0,2.812288284E0,2.210835539E1
4.142047089E0,2.282515144E1,5.437125206E0,1.022472382E1,2.559482069E1
4.147031985E0,2.044361877E1,7.874940872E0,9.640054703E0,2.393505582E1
4.152016881E0,1.689709282E1,1.120396996E1,3.761212349E0,2.062007291E1
4.157001776E0,1.275267506E1,1.379820442E1,-9.193291068E-1,1.881133521E1
4.161985631E0,8.436749458E0,1.431111145E1,-8.727251887E-1,1.663575371E1
4.166970474E0,5.468006611E0,1.339849472E1,1.660222173E0,1.456623132E1
4.171955318E0,3.972359896E0,1.251858807E1,3.240363598E0,1.352755139E1
4.176940162E0,2.900689840E0,1.215057278E1,2.446284771E0,1.272928629E1
4.181935526E0,2.062362432E0,1.203923798E1,-1.128101349E-2,1.221461080E1
4.186920943E0,1.561279058E0,1.186231709E1,-2.329490662E0,1.218928569E1
4.191906308E0,1.966645122E0,1.131376648E1,-3.394417286E0,1.197460119E1
4.196891672E0,3.667337418E0,1.026469421E1,-2.761101246E0,1.124442044E1
4.201865578E0,6.831543446E0,8.780126572E0,-1.288220406E0,1.119911248E1
4.206850370E0,1.105532646E1,6.908726692E0,-5.257674456E-1,1.304711382E1
4.211835162E0,1.498987198E1,5.295339584E0,-1.012490273E0,1.592990960E1
4.216820006E0,1.791019630E1,4.201787472E0,-2.289047956E0,1.853833569E1
4.221820683E0,1.965494347E1,3.781974792E0,-3.332723618E0,2.029106165E1
4.226806308E0,2.025812340E1,3.927847385E0,-3.459827900E0,2.092343083E1
4.231791933E0,1.984231186E1,4.394036293E0,-2.874946117E0,2.052535530E1
4.236777506E0,1.880176353E1,4.681233406E0,-2.119675398E0,1.949136429E1
4.241750110E0,1.739791107E1,4.750212193E0,-1.483330727E0,1.809563747E1
4.246735058E0,1.594209480E1,4.163217545E0,-1.160149574E0,1.651752748E1
4.251720006E0,1.460951805E1,2.978662968E0,-2.512593269E-1,1.491219575E1
4.256704953E0,1.254842281E1,1.642677307E0,9.035086632E-1,1.268769608E1
4.261682714E0,1.037959385E1,-1.459121704E-2,2.215259552E0,1.061336687E1
4.266667297E0,8.187617302E0,-2.086866379E0,2.344933987E0,8.768740147E0
4.271651881E0,5.555080414E0,-4.465004921E0,8.834196329E-1,7.181616642E0
4.276636464E0,2.713557720E0,-7.090483665E0,1.187198162E-1,7.592920947E0
4.281636516E0,-3.162458539E-2,-1.022554016E1,4.513018727E-1,1.023554322E1
4.286621881E0,-2.885472775E0,-1.450516605E1,8.090487719E-1,1.481149403E1
4.291607245E0,-6.242313385E0,-1.911117935E1,-8.486522436E-1,2.012272008E1
4.296592610E0,-1.018959618E1,-2.324963570E1,-4.614218712E0,2.580047373E1
4.301572349E0,-1.502852631E1,-2.615594864E1,-7.513335705E0,3.108762560E1
4.306557453E0,-1.855608177E1,-2.873303986E1,-7.917272091E0,3.510838856E1
4.311542558E0,-2.069903183E1,-3.050778198E1,-7.362870693E0,3.759503352E1
4.316527610E0,-2.274396896E1,-3.191637039E1,-6.836461544E0,3.978291128E1
4.321516672E0,-2.402051353E1,-3.325318909E1,-6.663053513E0,4.155906564E1
4.326501933E0,-2.505052567E1,-3.467617035E1,-7.115064621E0,4.336576727E1
4.331487245E0,-2.588329315E1,-3.530122757E1,-6.477609634E0,4.425020857E1
4.336472506E0,-2.659863663E1,-3.446031570E1,-5.506436348E0,4.387848756E1
4.341454745E0,-2.665536308E1,-3.198522568E1,-5.259697437E0,4.196698059E1
4.346439901E0,-2.618608856E1,-2.802538681E1,-4.873088837E0,3.866368496E1
4.351425058E0,-2.450609207E1,-2.344160843E1,-2.083840847E0,3.397646166E1
4.356410162E0,-2.144054413E1,-1.870244408E1,8.140629768E0,2.959304310E1
4.361386256E0,-1.679480743E1,-1.429598713E1,1.457636642E1,2.643692991E1
4.366370995E0,-1.239984131E1,-1.094036770E1,1.304601669E1,2.106291199E1
4.371355631E0,-7.886726856E0,-9.497200012E0,1.624704933E1,2.040499646E1
4.376340266E0,-4.870400429E0,-7.639875412E0,1.378007507E1,1.649178479E1
4.381341412E0,-2.704444408E0,-5.892434120E0,5.192920208E0,8.306697280E0
4.386326933E0,-1.056921482E0,-5.655419350E0,-1.603227377E0,5.972536234E0
4.391312401E0,-1.342664242E0,-5.596372604E0,-5.550658703E-1,5.781888248E0
4.396297922E0,-8.541314602E-1,-4.683977127E0,3.510292053E0,5.915347207E0
4.401270266E0,-8.551881313E-1,-3.044733047E0,6.792096138E0,7.492283765E0
4.406255110E0,-8.510451317E-1,-1.408547401E0,9.659223557E0,9.798412285E0
4.411239953E0,7.164990902E-1,-1.012751579E0,9.589937210E0,9.669846555E0
4.416224797E0,9.748826027E-1,-5.428495407E-1,6.108657837E0,6.209732867E0
4.421217401E0,-1.321481705E0,1.094656944E0,4.037580013E0,4.387099279E0
4.426202662E0,-3.345035553E0,3.484498978E0,4.370013237E0,6.513678812E0
4.431187870E0,-5.393582344E0,6.574316978E0,5.457208633E0,1.010413283E1
4.436173131E0,-8.115214348E0,1.029491234E1,5.865717888E0,1.436135684E1
4.441207662E0,-1.059224319E1,1.461674976E1,5.496451855E0,1.886944547E1
4.446195370E0,-1.222061920E1,1.853066063E1,5.893295765E0,2.296649412E1
4.451183078E0,-1.292446423E1,2.152022552E1,6.640582085E0,2.596650174E1
4.456170787E0,-1.376973343E1,2.399151611E1,7.156468391E0,2.857294951E1
4.461105422E0,-1.449019814E1,2.638431549E1,9.858930588E0,3.167485530E1
4.466090474E0,-1.477437115E1,2.897161865E1,1.336776161E1,3.516153837E1
4.471075578E0,-1.445886612E1,3.178080368E1,1.400860596E1,3.762073010E1
4.476060578E0,-1.321840572E1,3.322064209E1,1.296265984E1,3.803114330E1
4.481026724E0,-1.006089783E1,3.309888458E1,1.244021034E1,3.676297946E1
4.486010839E0,-6.717168808E0,3.234568787E1,1.108025455E1,3.484445324E1
4.490994953E0,-2.982570648E0,2.994908142E1,9.712322235E0,3.162550251E1
4.495979016E0,5.849411488E-1,2.670849609E1,7.131040096E0,2.765027401E1
4.500980526E0,3.768747807E0,2.306081390E1,3.421756268E0,2.361594830E1
4.505965474E0,6.764566422E0,1.912101364E1,-2.050714493E-1,2.028335711E1
4.510950422E0,1.041786385E1,1.370243454E1,-2.726446152E0,1.742762485E1
4.515935422E0,1.389928436E1,7.939128876E0,-6.075823784E0,1.712120053E1
4.520916360E0,1.519108582E1,4.202869892E0,-1.091957855E1,1.917473336E1
4.525901099E0,1.433463860E1,2.019188404E0,-1.486398411E1,2.074842184E1
4.530885891E0,1.198205757E1,5.182991028E-1,-1.577398109E1,1.981557007E1
4.535870631E0,9.125390053E0,-2.986497879E-1,-1.326151657E1,1.610061356E1
4.540873912E0,6.235230923E0,-5.176315308E-1,-1.090193844E1,1.256973782E1
4.545859589E0,3.607172012E0,-4.904890060E-1,-9.082784653E0,9.785154390E0
4.550845318E0,1.378052473E0,3.582048416E-1,-4.752533913E0,4.961241570E0
4.555830995E0,-1.723556757E0,2.704751968E0,5.931036949E0,6.742664933E0
4.560793599E0,-6.096288681E0,6.314207554E0,1.867620850E1,2.063576305E1
4.565778131E0,-8.979439735E0,8.714133263E0,2.132150269E1,2.472191201E1
4.570762714E0,-1.008752918E1,8.550606728E0,1.716869736E1,2.167107033E1
4.575747193E0,-1.098081779E1,6.701745033E0,1.265536976E1,1.804577872E1
4.580734537E0,-1.781399536E1,1.449649334E0,2.041603661E1,2.713400937E1
4.585719224E0,-4.295835114E1,-8.285351753E0,6.594368935E0,4.424423903E1
4.590703912E0,-5.219625473E1,-1.683980370E1,-3.281903076E1,6.391491826E1
4.595688599E0,-3.083679962E1,-2.716683960E1,-2.961190987E1,5.065383096E1
4.600677193E0,-3.272251129E1,-3.304471207E1,-1.183856487E0,4.652007370E1
4.605662037E0,-3.360382843E1,-3.636366272E1,1.421817303E1,5.151397573E1
4.610646933E0,-1.666648102E1,-3.869737244E1,2.428052902E1,4.862923311E1
4.615631828E0,4.198760986E-1,-3.501871490E1,2.768673706E1,4.464350007E1
4.620614328E0,6.081346512E0,-2.679270172E1,2.214514923E1,3.528794802E1
4.625599120E0,5.404892921E0,-1.669375610E1,1.418293190E1,2.256213460E1
4.630583860E0,3.142964125E0,-9.102393150E0,9.841755867E0,1.376923902E1
4.635568599E0,6.804368496E-1,-4.064748764E0,5.454214096E0,6.836199838E0
4.640668599E0,-1.678515911E0,8.351802826E-1,-3.772652149E-1,1.912399229E0
4.645768599E0,-3.307546377E0,5.012905121E0,-4.679534912E0,7.613614633E0
4.650856776E0,-3.557290077E0,6.967926025E0,-7.105282784E0,1.056841281E1
4.655856776E0,-3.741348267E0,7.036456108E0,-9.134164810E0,1.212197872E1
4.660761776E0,-4.156912327E0,5.836485386E0,-1.026683903E1,1.252008248E1
4.665666776E0,-3.640525341E0,3.555241108E0,-7.261747837E0,8.867138532E0
4.670571776E0,-2.556690454E0,-8.539266586E-1,1.532896876E0,3.100907875E0
4.675476776E0,1.122951508E-1,-7.398487091E0,9.324536324E0,1.190366326E1
4.680434693E0,3.040886641E0,-1.400676918E1,1.436120129E1,2.028991564E1
4.685417141E0,5.689260483E0,-1.898665619E1,1.645352554E1,2.576003301E1
4.690399589E0,8.712630272E0,-2.261204147E1,1.696717262E1,2.958207722E1
4.695382037E0,1.075043297E1,-2.519425201E1,1.369692993E1,3.062561074E1
4.700367037E0,1.186627579E1,-2.554942131E1,8.176183701E0,2.933311116E1
4.705349641E0,1.208751106E1,-2.347756767E1,9.237657785E-1,2.642266926E1
4.710332245E0,9.963577271E0,-1.993064117E1,-7.330132484E0,2.345707083E1
4.715314849E0,5.687732697E0,-1.551611042E1,-1.260654068E1,2.078520757E1
4.720317089E0,1.972452164E0,-1.200916576E1,-1.302756882E1,1.782773623E1
4.725300631E0,-1.874000430E-1,-9.939688683E0,-1.157097244E1,1.525516087E1
4.730284224E0,-2.348836899E0,-7.487769127E0,-9.606771469E0,1.240458703E1
4.735267766E0,-4.924125195E0,-4.574594498E0,-7.243690968E0,9.881547580E0
4.740289589E0,-6.718342304E0,-2.035293579E0,-6.708733559E0,9.710079775E0
4.745275110E0,-8.145681381E0,1.894483566E-1,-8.248537064E0,1.159423907E1
4.750260578E0,-9.183619499E0,1.807287216E0,-1.072533989E1,1.423509993E1
4.755246099E0,-8.988149643E0,3.175013542E0,-1.261478806E1,1.581140167E1
4.760196985E0,-7.086972237E0,4.024878025E0,-1.392186165E1,1.613205041E1
4.765180735E0,-3.105602264E0,4.093157291E0,-1.535783482E1,1.619449883E1
4.770164537E0,2.086865664E0,3.434272766E0,-1.647561073E1,1.695862573E1
4.775148339E0,6.558012962E0,2.945633411E0,-1.643552017E1,1.793908062E1
4.780139120E0,1.017259693E1,2.568355083E0,-1.590936375E1,1.905744031E1
4.785123287E0,1.296138287E1,2.561724186E0,-1.551082993E1,2.037512507E1
4.790107401E0,1.480516624E1,2.836124420E0,-1.500917625E1,2.127232759E1
4.795091516E0,1.592577934E1,3.435917377E0,-1.499837112E1,2.214468587E1
4.800081412E0,1.583073330E1,4.075846672E0,-1.553093338E1,2.254849296E1
4.805065839E0,1.506491280E1,4.480849266E0,-1.402915192E1,2.106766981E1
4.810050266E0,1.372009754E1,4.435746670E0,-1.039673233E1,1.777664108E1
4.815034693E0,1.210582733E1,4.387798309E0,-4.874194145E0,1.376813705E1
4.820020006E0,1.027746487E1,4.744974613E0,1.498286724E0,1.141866591E1
4.825004485E0,8.467705727E0,6.000245094E0,6.317142010E0,1.214953763E1
4.829988912E0,7.449622631E0,7.770855427E0,7.549625397E0,1.314838070E1
4.834973391E0,6.973800182E0,9.728160858E0,5.382438183E0,1.312408639E1
4.840073391E0,6.419921398E0,1.191097736E1,1.855579257E0,1.365759667E1
4.845088495E0,5.706412792E0,1.392242432E1,-1.552153945E0,1.512634218E1
4.850079849E0,5.170409679E0,1.501539135E1,-4.334287643E0,1.646150549E1
4.855071203E0,5.087193012E0,1.471396828E1,-6.020344734E0,1.669206236E1
4.859976203E0,5.939183235E0,1.298240948E1,-6.299848557E0,1.560464499E1
4.864884224E0,7.209131718E0,1.049986458E1,-6.180712223E0,1.415697495E1
4.869867349E0,8.511608124E0,8.006218910E0,-5.552670956E0,1.293751015E1
4.874850474E0,9.714165688E0,5.754015446E0,-4.272026539E0,1.207161628E1
4.879836099E0,1.049125767E1,3.806484222E0,-2.721255064E0,1.148742960E1
4.884819328E0,1.078404331E1,2.020908356E0,-1.719050407E0,1.110561998E1
4.889802558E0,1.050126171E1,4.206085205E-2,-2.132293701E0,1.071564011E1
4.894785839E0,1.063697624E1,-3.082485199E0,-3.673313379E0,1.166791368E1
4.899781464E0,1.060034943E1,-6.904935837E0,-6.309920788E0,1.413720790E1
4.904765318E0,9.513735771E0,-1.040452099E1,-6.091965675E0,1.535829649E1
4.909749224E0,6.364574909E0,-1.455598259E1,-2.844765663E0,1.613930403E1
4.914733078E0,1.762455940E0,-1.894043350E1,-8.655474186E-1,1.904193910E1
4.919709589E0,-2.346136570E0,-2.244055939E1,-3.741876602E0,2.287104508E1
4.924693078E0,-6.616806984E0,-2.494040680E1,-8.672507286E0,2.722165330E1
4.929676568E0,-1.109619999E1,-2.584589386E1,-1.144645786E1,3.036704268E1
4.934660110E0,-1.491279984E1,-2.613145828E1,-1.113075161E1,3.208018613E1
4.939657453E0,-1.778266907E1,-2.670518875E1,-9.005285263E0,3.332394917E1
4.944641672E0,-1.840741920E1,-2.553258705E1,-6.399965286E0,3.212017495E1
4.949625891E0,-1.697478104E1,-2.319669533E1,-3.345926762E0,2.893829800E1
4.954610058E0,-1.515071774E1,-2.097198677E1,-9.464049339E-2,2.587232950E1
4.959601412E0,-1.342851162E1,-1.931842422E1,3.065354586E0,2.372599498E1
4.964585943E0,-1.173797131E1,-1.795321083E1,5.081399441E0,2.204355620E1
4.969570474E0,-1.090775490E1,-1.650020218E1,5.212623119E0,2.045500498E1
4.974555058E0,-1.113477993E1,-1.439619446E1,3.255773067E0,1.848874785E1
4.979540735E0,-1.026323891E1,-1.276578426E1,1.464074612E0,1.644514625E1
4.984525318E0,-8.793930054E0,-1.113293648E1,-1.077394724E0,1.422800969E1
4.989509901E0,-7.149176598E0,-9.293740273E0,-2.091821194E0,1.191050168E1
4.994494537E0,-5.028354645E0,-7.511653900E0,-2.377099752E0,9.346651699E0
4.999484276E0,-1.497460365E0,-6.731937408E0,3.781707287E-1,6.906835883E0
5.004469172E0,2.658282757E0,-6.885010719E0,3.342749119E0,8.102086860E0
5.009454068E0,6.049859047E0,-6.955042839E0,2.934954166E0,9.674056612E0
5.014438912E0,7.545791626E0,-6.537178993E0,2.570670128E0,1.030931741E1
5.019418703E0,7.337192535E0,-5.362800598E0,3.153976440E0,9.619854050E0
5.024403287E0,6.367287636E0,-3.774838448E0,3.711151600E0,8.280362513E0
5.029387922E0,5.164135933E0,-1.983613014E0,3.776510239E0,6.698137809E0
5.034372506E0,3.231419563E0,-7.712459564E-2,4.132491589E0,5.246475705E0
5.039472506E0,1.489217758E0,1.562292099E0,4.705471992E0,5.176870947E0
5.044572506E0,-1.070691824E0,3.363951683E0,5.277987957E0,6.349780215E0
5.049672506E0,-3.863427877E0,5.081705093E0,6.151876450E0,8.865403853E0
5.054772506E0,-5.939030647E0,6.469268799E0,7.312737465E0,1.142802052E1
5.059776724E0,-7.492936134E0,7.480854988E0,7.990229607E0,1.326465425E1
5.064681724E0,-8.984404564E0,8.595260620E0,8.452167511E0,1.503453245E1
5.069586724E0,-1.024321079E1,9.807265282E0,9.363679886E0,1.699365531E1
5.074491724E0,-1.165418434E1,1.111943245E1,9.933135986E0,1.892429606E1
5.079396724E0,-1.291351986E1,1.248402977E1,9.512113571E0,2.032462297E1
5.084301724E0,-1.393513966E1,1.370896912E1,9.135707855E0,2.157742129E1
5.089222245E0,-1.501304054E1,1.522109032E1,9.185043335E0,2.326882029E1
5.094211516E0,-1.522652340E1,1.683545494E1,1.059683418E1,2.505139622E1
5.099200891E0,-1.503378201E1,1.838939285E1,1.246760845E1,2.682583888E1
5.104157349E0,-1.492818165E1,1.981179237E1,1.338687897E1,2.818805160E1
5.109145058E0,-1.486271858E1,2.105831146E1,1.396736622E1,2.931621061E1
5.114132766E0,-1.383951187E1,2.208361816E1,1.387023449E1,2.952290102E1
5.119120422E0,-1.290728188E1,2.279399109E1,1.323690224E1,2.934926807E1
5.124114120E0,-1.172957802E1,2.294929504E1,1.190197945E1,2.838855858E1
5.129102089E0,-9.749656677E0,2.226078224E1,9.769582748E0,2.619242216E1
5.134090110E0,-7.881904602E0,2.103972626E1,7.112345695E0,2.356650085E1
5.139078131E0,-6.503726006E0,1.902607346E1,4.940222263E0,2.070496846E1
5.144043026E0,-4.971347809E0,1.613607025E1,3.633103132E0,1.727097277E1
5.149029849E0,-2.356024027E0,1.269205952E1,2.310076237E0,1.311394968E1
5.154016724E0,1.911079645E0,8.818564415E0,-9.039759636E-2,9.023717387E0
5.159003547E0,6.322505951E0,4.767729282E0,-2.851058006E0,8.416285152E0
5.163991151E0,9.101818085E0,1.180755615E0,-4.915288925E0,1.041140440E1
5.168978026E0,9.805417061E0,-1.595063210E0,-6.711661339E0,1.198902950E1
5.173964901E0,8.685615540E0,-3.125782967E0,-8.237706184E0,1.237215582E1
5.178951828E0,7.333917618E0,-3.759188652E0,-1.004174614E1,1.299055474E1
5.183932193E0,6.135922432E0,-4.149026871E0,-1.304924774E1,1.500489369E1
5.188918756E0,4.546712399E0,-4.809854507E0,-1.825989532E1,1.942243732E1
5.193905318E0,2.296873093E0,-5.885586739E0,-2.323832130E1,2.408184657E1
5.198891828E0,-3.021535635E0,-5.970164299E0,-1.734549522E1,1.859136208E1
5.203867766E0,-1.045081329E1,-4.345416069E0,-2.230034828E0,1.153582224E1
5.208853808E0,-1.775801277E1,-3.693071365E0,6.447967529E0,1.924998906E1
5.213839849E0,-2.576828766E1,-6.297701836E0,9.319375038E0,2.811612435E1
5.218825839E0,-3.778380585E1,-1.232324505E1,1.643955040E1,4.300857089E1
5.223820266E0,-4.110372543E1,-1.611638260E1,6.634819508E0,4.464610691E1
5.228806672E0,-3.188590622E1,-1.672248840E1,-1.047526932E1,3.749778528E1
5.233793131E0,-2.141532326E1,-1.515113926E1,-1.463194847E1,3.003775969E1
5.238779589E0,-1.282519531E1,-1.292637539E1,4.460721970E0,1.874766268E1
5.243753443E0,-6.374801636E0,-8.845563889E0,1.756258202E1,2.067187421E1
5.248739276E0,-3.137741089E-1,-5.456135750E0,2.031007385E1,2.103252176E1
5.253725058E0,2.046021461E0,-1.184698105E0,2.149962044E1,2.162922542E1
5.258710891E0,2.860958576E-1,3.286785126E0,2.196249199E1,2.220891401E1
5.263696256E0,-1.126128435E0,5.374272823E0,2.016387177E1,2.089815059E1
5.268682089E0,-2.335429668E0,5.776716232E0,1.669872856E1,1.782336157E1
5.273667870E0,-3.564222336E0,4.945191383E0,1.342329025E1,1.474256829E1
5.278653651E0,-4.594687939E0,3.088312626E0,1.148786640E1,1.275225104E1
5.283633964E0,-4.814304352E0,8.320207596E-1,1.058121681E1,1.165469580E1
5.288619485E0,-3.825571299E0,-1.817316055E0,1.098446846E1,1.177268792E1
5.293605006E0,-1.946649551E0,-5.866402626E0,1.238738823E1,1.384382575E1
5.298590526E0,1.955061316E0,-1.164129162E1,9.617177010E0,1.522603129E1
5.303575839E0,8.207376480E0,-1.812019730E1,-3.523050785E0,2.020184312E1
5.308561360E0,1.449549675E1,-2.451612091E1,-1.399398232E1,3.173312389E1
5.313546828E0,1.973229408E1,-3.017600632E1,-1.443186474E1,3.883598212E1
5.318532349E0,2.462106133E1,-3.435897064E1,-1.057233810E1,4.357189297E1
5.323518547E0,2.721429062E1,-3.543614960E1,-4.789814949E0,4.493640661E1
5.328504068E0,2.470320511E1,-3.117106438E1,-9.710245132E-1,3.978475192E1
5.333489641E0,1.989352226E1,-2.410446930E1,2.355877399E0,3.134210948E1
5.338475162E0,1.550869083E1,-1.838508224E1,2.846202612E0,2.422047914E1
5.343455266E0,1.219345760E1,-1.470937824E1,1.269420147E0,1.914830656E1
5.348440526E0,6.883752823E0,-1.107357216E1,-3.230861664E0,1.343311283E1
5.353425839E0,3.250408471E-1,-7.538585663E0,-9.415223122E0,1.206575119E1
5.358411099E0,-3.718648434E0,-5.506396294E0,-1.348498440E1,1.503308187E1
5.363397141E0,-7.402511597E0,-4.246481895E0,-1.266048336E1,1.526818998E1
5.368382453E0,-1.274071884E1,-3.122697830E0,-9.847537994E0,1.640277912E1
5.373367766E0,-1.780021477E1,-3.052568436E0,-8.999530792E0,2.017814100E1
5.378353078E0,-1.763560867E1,-4.758730888E0,-9.664217949E0,2.066536526E1
5.383335162E0,-1.219155312E1,-8.806958199E0,-1.026318932E1,1.820795252E1
5.388320266E0,-4.936865807E0,-1.333675194E1,-1.061487579E1,1.774590613E1
5.393305422E0,4.548446834E-1,-1.577726364E1,-1.241245270E1,2.007978869E1
5.398290578E0,4.600887775E0,-1.585477638E1,-1.453780556E1,2.199749742E1
5.403275526E0,7.205277443E0,-1.373343658E1,-1.714581299E1,2.311930376E1
5.408260631E0,8.474864006E0,-1.034616947E1,-1.972167969E1,2.382878915E1
5.413245787E0,1.049639702E1,-6.949197769E0,-2.080063248E1,2.431320652E1
5.418230943E0,1.258996105E1,-3.202389717E0,-1.957674217E1,2.349491973E1
5.423220110E0,1.331243896E1,7.080955505E-1,-1.630601883E1,2.106201986E1
5.428205474E0,1.447107220E1,3.496808529E0,-1.329398727E1,1.995920084E1
5.433190839E0,1.509221935E1,5.310670853E0,-1.074302673E1,1.927150573E1
5.438176151E0,1.480450821E1,6.527439117E0,-8.137353897E0,1.811069996E1
5.443172297E0,1.408061218E1,7.188334942E0,-5.291760445E0,1.667148845E1
5.448158235E0,1.320775032E1,7.442602158E0,-1.478226423E0,1.523227326E1
5.453144120E0,1.230382538E1,7.807287693E0,2.599166155E0,1.480180816E1
5.458130006E0,1.146830177E1,8.514060974E0,5.029062271E0,1.514274239E1
5.463102401E0,1.111533642E1,9.323282242E0,5.457924843E0,1.550042706E1
5.468087558E0,1.072724342E1,1.041939831E1,5.062301636E0,1.578811295E1
5.473072766E0,1.084157848E1,1.145581532E1,2.452534676E0,1.596215696E1
5.478058026E0,1.169704151E1,1.250069427E1,-2.966161966E0,1.737487422E1
5.483036724E0,1.242540646E1,1.366079330E1,-7.839406013E0,2.006151255E1
5.488021620E0,1.387533474E1,1.387753391E1,-1.057991505E1,2.229451646E1
5.493006516E0,1.473368740E1,1.205216217E1,-1.104534531E1,2.200763073E1
5.497991360E0,1.422058773E1,9.427353859E0,-8.689391136E0,1.914694844E1
5.502984224E0,1.262413979E1,7.674021721E0,-4.834020138E0,1.554436443E1
5.507969537E0,1.010004425E1,6.939665794E0,-1.674819231E0,1.236830120E1
5.512954797E0,7.446746349E0,6.554086685E0,-9.374054670E-1,9.964377175E0
5.517940110E0,5.484690666E0,6.090352058E0,-2.362985611E0,8.529825373E0
5.522913860E0,4.355199337E0,5.636951447E0,-4.214580536E0,8.276815328E0
5.527898547E0,3.538692713E0,5.225099087E0,-5.486682892E0,8.362278143E0
5.532883287E0,2.601186275E0,4.730030060E0,-6.008036613E0,8.076871817E0
5.537867974E0,1.777946711E0,4.163177013E0,-6.142599106E0,7.630508576E0
5.542857714E0,9.825133085E-1,3.186770916E0,-6.031723022E0,6.892207476E0
5.547842662E0,1.488028020E-1,1.898557186E0,-4.566207409E0,4.947414655E0
5.552827662E0,-4.862052798E-1,2.214698792E-1,-1.673255205E0,1.756481558E0
5.557812610E0,-8.488162756E-1,-1.969166756E0,1.143375516E0,2.430105831E0
5.562799328E0,-1.077248931E0,-4.957768440E0,3.439547539E0,6.129471465E0
5.567784381E0,-1.274290204E0,-8.664659500E0,5.014069080E0,1.009163161E1
5.572769485E0,-2.094902754E0,-1.214680386E1,4.763186932E0,1.321443950E1
5.577754485E0,-3.837553740E0,-1.574879360E1,2.124837399E0,1.634827981E1
5.582739016E0,-5.824988842E0,-2.039630508E1,-3.917874336E0,2.157057012E1
5.587724068E0,-8.170351028E0,-2.621861649E1,-1.021906567E1,2.930187348E1
5.592709120E0,-1.110374451E1,-3.185049057E1,-1.234226131E1,3.591766008E1
5.597694120E0,-1.300991249E1,-3.576187134E1,-1.068312740E1,3.952592157E1
5.602679276E0,-1.387092304E1,-3.701827240E1,-7.654887199E0,4.026601912E1
5.607664276E0,-1.363846493E1,-3.565889359E1,-4.831645012E0,3.848258321E1
5.612649328E0,-1.243963337E1,-3.193351936E1,-1.608933926E0,3.430864039E1
5.617634328E0,-1.228282642E1,-2.662876892E1,1.283279896E0,2.935312533E1
5.622603026E0,-1.345681381E1,-2.112981415E1,3.916719198E0,2.535538549E1
5.627587245E0,-1.355769825E1,-1.674670029E1,5.498728275E0,2.223733718E1
5.632571412E0,-1.148425007E1,-1.387832069E1,7.825927734E0,1.964028844E1
5.637555631E0,-8.054559708E0,-1.198798084E1,9.007452011E0,1.702121642E1
5.642552662E0,-3.668001652E0,-1.036391926E1,7.294342518E0,1.319365345E1
5.647537506E0,3.319636583E-1,-8.754030228E0,4.237928391E0,9.731561136E0
5.652522349E0,4.713497162E0,-7.821862221E0,2.815279961E0,9.556379301E0
5.657507193E0,7.722808838E0,-6.904561996E0,3.751279831E0,1.101757020E1
5.662492141E0,9.751458168E0,-5.685747147E0,6.770203590E0,1.316261044E1
5.667476933E0,1.016863441E1,-4.446861267E0,8.514719009E0,1.398842882E1
5.672461828E0,8.800735474E0,-2.277847290E0,8.768616676E0,1.263052539E1
5.677446620E0,6.843227386E0,2.056932449E-1,9.090052605E0,1.137985620E1
5.682440214E0,4.072049618E0,3.032821178E0,8.990945816E0,1.032553626E1
5.687425526E0,1.893361807E0,5.596579552E0,8.513293266E0,1.036256165E1
5.692410787E0,4.906296730E-3,7.657999516E0,8.758749008E0,1.163446023E1
5.697396047E0,-1.659875631E0,8.997037888E0,9.140100479E0,1.293225868E1
5.702387349E0,-2.978832722E0,9.805779457E0,9.289510727E0,1.383191110E1
5.707372922E0,-4.351292610E0,1.020363235E1,9.302463531E0,1.447700550E1
5.712358547E0,-6.292362690E0,1.065286350E1,9.289006233E0,1.547135953E1
5.717344120E0,-7.658924580E0,1.102341461E1,1.001753044E1,1.674890180E1
5.722323235E0,-9.189108849E0,1.144861603E1,1.030486107E1,1.793601662E1
5.727308495E0,-1.075917816E1,1.193629646E1,1.016469193E1,1.901462726E1
5.732293756E0,-1.257965088E1,1.272329712E1,1.009025288E1,2.054125383E1
5.737279016E0,-1.377744198E1,1.358389568E1,1.059307098E1,2.205795281E1
5.742259589E0,-1.456079674E1,1.445199299E1,1.116737556E1,2.335780769E1
5.747244693E0,-1.552895164E1,1.534034920E1,1.087733269E1,2.438833777E1
5.752229693E0,-1.689080429E1,1.618079376E1,1.011410522E1,2.548357276E1
5.757214693E0,-1.741728973E1,1.698718452E1,1.084345055E1,2.663656959E1
5.762199797E0,-1.645964622E1,1.783417511E1,1.291073895E1,2.748936041E1
5.767184849E0,-1.479637909E1,1.902919006E1,1.385817146E1,2.780452886E1
5.772169901E0,-1.260548306E1,2.020167160E1,1.512879562E1,2.821145504E1
5.777154953E0,-1.073679733E1,2.101433563E1,1.718987274E1,2.919542505E1
5.782147818E0,-1.041038036E1,2.132362556E1,1.687058830E1,2.911511251E1
5.787133235E0,-1.076016998E1,2.021648979E1,1.383347702E1,2.675542569E1
5.792118651E0,-1.110300732E1,1.779666710E1,1.030727768E1,2.337173730E1
5.797104068E0,-1.128046131E1,1.531801701E1,8.114430428E0,2.068174155E1
5.802081047E0,-1.069493961E1,1.273537540E1,6.942513943E0,1.802137675E1
5.807066047E0,-9.181591034E0,1.008176613E1,6.256764412E0,1.500302380E1
5.812051047E0,-6.977370739E0,7.536408424E0,5.356605053E0,1.158336618E1
5.817036047E0,-4.002783298E0,5.373870850E0,3.400970221E0,7.514476727E0
5.822019068E0,-1.712405682E-2,3.468810558E0,3.825037479E-1,3.489878084E0
5.827003964E0,4.461957932E0,1.477818489E0,-4.498698235E0,6.506250985E0
5.831988860E0,1.030526447E1,-9.629869461E-1,-1.840429306E1,2.111501415E1
5.836973756E0,1.868319702E1,-5.727737427E0,-3.935419846E1,4.393884117E1
5.841970891E0,2.348939514E1,-1.090850258E1,-4.425356293E1,5.127499336E1
5.846956412E0,2.326534081E1,-1.474897003E1,-3.752851868E1,4.655317297E1
5.851941933E0,1.646665764E1,-1.569984150E1,-2.446959305E1,3.341252491E1
5.856927401E0,3.155900002E0,-1.200493240E1,-2.918810844E0,1.275137497E1
5.861896308E0,-9.534736633E0,-8.321917534E0,1.568527603E1,2.015424021E1
5.866880995E0,-2.060243225E1,-1.087454605E1,2.417704201E1,3.357447433E1
5.871865735E0,-3.028519630E1,-2.361748886E1,1.693848228E1,4.197488627E1
5.876850370E0,-3.588277435E1,-3.705007553E1,-1.887066269E1,5.492161234E1
5.881830787E0,-3.218229675E1,-4.304994965E1,-1.517642021E1,5.585089184E1
5.886815214E0,-2.132758904E1,-3.401102066E1,2.290197945E1,4.621813760E1
5.891799745E0,-9.552284241E0,-2.112821198E1,3.276342392E1,4.013837842E1
5.896784224E0,-4.145618439E0,-1.531608295E1,2.878028107E1,3.286446603E1
5.901778599E0,1.746888518E0,-1.031268024E1,2.184058189E1,2.421598668E1
5.906763547E0,5.595319271E0,-4.337681770E0,1.810954285E1,1.944424396E1
5.911748495E0,6.939464569E0,2.412781715E0,1.409144211E1,1.589170931E1
5.916733495E0,6.153730869E0,7.730853081E0,1.752305603E1,2.011695766E1
5.921720422E0,4.740564823E0,1.042993546E1,2.062709999E1,2.359520635E1
5.926705526E0,3.984299421E0,1.212264061E1,1.987207031E1,2.361635526E1
5.931690578E0,3.849830627E0,1.332398796E1,1.809136200E1,2.279577220E1
5.936675631E0,3.486858368E0,1.378762054E1,1.482167053E1,2.054114356E1
5.941664068E0,1.659002542E0,1.318094444E1,1.111829185E1,1.732356775E1
5.946649328E0,-1.103917241E0,1.110230446E1,8.309452057E0,1.391139069E1
5.951634537E0,-3.073605537E0,6.157166481E0,5.818625450E0,9.011889491E0
5.956619797E0,-2.741967678E0,-2.673850060E0,2.142804623E0,4.388561557E0
5.961610891E0,-2.616257668E-1,-1.500630760E1,6.731231213E0,1.644892670E1
5.966596412E0,3.055487156E0,-2.802362442E1,1.571899796E1,3.227609679E1
5.971581933E0,8.697636604E0,-3.672263718E1,1.517585659E1,4.067563874E1
5.976567453E0,1.485640049E1,-4.106361008E1,9.110847473E0,4.460874634E1
5.981539433E0,1.982869148E1,-4.290704727E1,1.600632906E0,4.729433092E1
5.986524276E0,2.237534523E1,-4.042129135E1,-5.598821163E0,4.653905529E1
5.991509120E0,2.006106186E1,-3.199702072E1,-1.078892708E1,3.927666592E1
5.996493964E0,1.423240471E1,-2.259358215E1,-1.324788857E1,2.980835201E1
6.001481933E0,8.961128235E0,-1.635460663E1,-1.284692478E1,2.264549522E1
6.006466933E0,6.427388668E0,-1.263106441E1,-1.243214512E1,1.885240954E1
6.011451985E0,3.597778559E0,-9.430210114E0,-1.273654175E1,1.625091902E1
6.016436985E0,-1.885660529E0,-6.103691101E0,-1.157529354E1,1.322112632E1
6.021428756E0,-7.476401806E0,-4.075177193E0,-8.833915710E0,1.226954440E1
6.026414120E0,-1.189585018E1,-2.202863693E0,-7.452773571E0,1.420942272E1
6.031399485E0,-1.549822617E1,-7.855787277E-1,-7.829216003E0,1.738127646E1
6.036384797E0,-1.801413918E1,1.869688034E-1,-8.376170158E0,1.986716875E1
6.041392141E0,-1.975741196E1,1.165311813E0,-9.650485039E0,2.201919936E1
6.046378547E0,-2.048571396E1,2.367848396E0,-1.286158276E1,2.430414560E1
6.051365006E0,-1.748894691E1,2.570948601E0,-1.627851868E1,2.403046423E1
6.056351464E0,-1.216130257E1,1.686197281E0,-1.784244728E1,2.165856566E1
6.061307245E0,-6.529139519E0,4.474678040E-1,-1.770022964E1,1.887135448E1
6.066292193E0,-1.414317608E0,-5.876922607E-1,-1.613153839E1,1.620407996E1
6.071277089E0,3.463401079E0,-6.159076691E-1,-1.365638256E1,1.410217267E1
6.076262037E0,6.806186199E0,5.339660645E-1,-1.340495682E1,1.504334263E1
6.081251412E0,1.047300529E1,8.427772522E-1,-1.397287464E1,1.748242944E1
6.086236568E0,1.361435318E1,1.776300430E0,-1.626846123E1,2.128775907E1
6.091221672E0,1.464534569E1,3.655252457E0,-1.658028793E1,2.242215353E1
6.096206881E0,1.447629166E1,5.485780239E0,-1.179121971E1,1.945995034E1
6.101173651E0,1.504869175E1,6.522929192E0,-4.264285564E0,1.694685398E1
6.106157870E0,1.543542862E1,7.546475887E0,5.108921051E0,1.792492202E1
6.111142089E0,1.502097607E1,8.934663773E0,1.240608215E1,2.143289092E1
6.116126308E0,1.411540985E1,1.001314354E1,1.542453194E1,2.318240765E1
6.121128547E0,1.304734325E1,1.103869438E1,1.519753551E1,2.287030882E1
6.126113703E0,1.201190662E1,1.288500786E1,1.290773010E1,2.183847121E1
6.131098808E0,1.125074291E1,1.513531303E1,1.013962078E1,2.141188516E1
6.136083912E0,1.048608780E1,1.695721436E1,7.107517719E0,2.116652934E1
6.141067714E0,1.038791752E1,1.810733604E1,3.676335335E0,2.119669527E1
6.146052766E0,1.043647957E1,1.840961838E1,-2.077551335E-1,2.116311217E1
6.151037870E0,1.060526276E1,1.672933769E1,-3.156687737E0,2.005759246E1
6.156022922E0,1.088459206E1,1.318140316E1,-4.268519878E0,1.761942097E1
6.161014901E0,1.058294010E1,1.010448360E1,-4.060995102E0,1.518521950E1
6.166000266E0,9.820906639E0,7.964166641E0,-3.513588428E0,1.312339366E1
6.170985631E0,8.786155701E0,6.424296379E0,-3.395869017E0,1.140175611E1
6.175971047E0,7.859690666E0,5.094159126E0,-3.955549002E0,1.016718066E1
6.180946308E0,6.655985832E0,3.865926743E0,-5.337132931E0,9.366564199E0
6.185931203E0,4.525371075E0,3.047714710E0,-7.082627296E0,8.940422682E0
6.190916047E0,1.723043442E0,2.750416279E0,-7.547971249E0,8.216175411E0
6.195900995E0,-1.260658264E0,2.979238033E0,-6.152276039E0,6.950943747E0
6.200893964E0,-3.706346273E0,3.359214306E0,-4.010365963E0,6.411268097E0
6.205879276E0,-5.370103836E0,3.752984047E0,-2.597891808E0,7.047832739E0
6.210864589E0,-6.363714218E0,4.116964340E0,-2.026307821E0,7.845519576E0
6.215849849E0,-6.456736565E0,4.187447071E0,-1.646347046E0,7.869855058E0
6.220835683E0,-5.427519798E0,3.858991146E0,-1.748513937E0,6.885280300E0
6.225820995E0,-3.552090883E0,3.253791332E0,-1.082921863E0,4.937329991E0
6.230806360E0,-1.059453249E0,2.233431816E0,1.158829093E0,2.730117897E0
6.235791672E0,1.658021212E0,7.486677170E-1,3.714006424E0,4.135623460E0
6.240780162E0,4.288949966E0,-1.366231918E0,5.187551975E0,6.868214977E0
6.245765631E0,6.752295494E0,-4.042220116E0,5.871767521E0,9.818894628E0
6.250751151E0,9.147846222E0,-7.133874893E0,6.188054085E0,1.314790002E1
6.255736620E0,1.108545685E1,-1.089083004E1,6.442167282E0,1.682257566E1
6.260701256E0,1.219773006E1,-1.533324623E1,5.411437511E0,2.032674875E1
6.265685735E0,1.231548214E1,-2.061854935E1,1.004435062E0,2.403756575E1
6.270670214E0,1.228098202E1,-2.619970703E1,-4.953460693E0,2.935615678E1
6.275654641E0,1.144633675E1,-3.074384499E1,-8.561841965E0,3.390439156E1
6.280647297E0,9.307097435E0,-3.330114746E1,-7.874451637E0,3.546259259E1
6.285632141E0,5.768531799E0,-3.216091919E1,-5.311120033E0,3.310300105E1
6.290617037E0,6.541511416E-1,-2.798624420E1,-3.622552633E0,2.822730355E1
6.295601933E0,-4.415506840E0,-2.402571487E1,-2.815089703E0,2.458976222E1
6.300581881E0,-8.222367287E0,-2.173182869E1,-1.829219818E0,2.330720376E1
6.305566464E0,-1.058493996E1,-2.076664352E1,-6.543254852E-1,2.331785966E1
6.310551099E0,-1.126366997E1,-2.003842354E1,7.553212643E-1,2.299954759E1
6.315535735E0,-1.145697784E1,-1.904246140E1,2.663347244E0,2.238238361E1
6.320519797E0,-1.144745159E1,-1.775781250E1,5.225239277E0,2.176435568E1
6.325504433E0,-1.071578121E1,-1.646872711E1,9.538546562E0,2.184103501E1
6.330489068E0,-1.000574589E1,-1.450742435E1,1.346273232E1,2.217713853E1
6.335473599E0,-8.644754410E0,-1.198131084E1,2.456437874E1,2.866517558E1
6.340463183E0,-7.017688751E0,-9.395792007E0,2.614696312E1,2.865645727E1
6.345448026E0,-5.144935608E0,-6.916317940E0,1.872862625E1,2.061715930E1
6.350432870E0,-1.440593243E0,-5.279266357E0,9.391589165E0,1.086958643E1
6.355417714E0,2.500593901E0,-4.363017082E0,1.185996771E0,5.166766518E0
6.360422714E0,5.871322155E0,-3.787345886E0,-3.829040051E0,7.967305719E0
6.365408599E0,7.472013474E0,-3.248470306E0,-5.745589733E0,9.969721464E0
6.370394433E0,7.016519070E0,-3.035592079E0,-2.324939251E0,7.990725977E0
6.375380318E0,6.088741779E0,-2.784212112E0,3.335491180E0,7.479980946E0
6.380343235E0,4.604147911E0,-1.709055901E0,4.913353443E0,6.946948403E0
6.385327922E0,3.377093792E0,-5.352106094E-1,5.394462585E0,6.386817632E0
6.390312662E0,2.437123299E0,6.366777420E-1,6.602513313E0,7.066690213E0
6.395297349E0,2.216313601E0,1.685858250E0,8.412611961E0,8.861501229E0
6.400291620E0,2.381121159E0,2.572352886E0,9.955289841E0,1.055436086E1
6.405276776E0,1.075221658E0,4.010846615E0,8.907629013E0,9.827962496E0
6.410261985E0,-1.396846294E0,6.115710258E0,6.778656006E0,9.235976872E0
6.415247141E0,-3.914382696E0,8.522535324E0,5.370544910E0,1.080734717E1
6.420233495E0,-6.025635242E0,1.070066929E1,4.454098701E0,1.306336858E1
6.425218756E0,-7.231233120E0,1.217850304E1,4.345842361E0,1.481529664E1
6.430203964E0,-7.540687561E0,1.319963837E1,5.479438305E0,1.615910474E1
6.435189224E0,-7.624725819E0,1.403755093E1,7.538856506E0,1.766419082E1
6.440289224E0,-8.196203232E0,1.504626656E1,9.750411987E0,1.971391434E1
6.445389224E0,-9.268377304E0,1.610714149E1,1.185081863E1,2.204052466E1
6.450479693E0,-1.023856544E1,1.673341942E1,1.394285965E1,2.406738214E1
6.455480006E0,-1.103389072E1,1.697570610E1,1.539531994E1,2.543496055E1
6.460385006E0,-1.181328392E1,1.707474899E1,1.575685692E1,2.606490495E1
6.465290006E0,-1.276053715E1,1.653194427E1,1.460793686E1,2.548584527E1
6.470195006E0,-1.376132298E1,1.557759476E1,1.283765411E1,2.443032606E1
6.475107974E0,-1.489998913E1,1.451892281E1,1.061073971E1,2.335372760E1
6.480058703E0,-1.593440247E1,1.343185997E1,7.939108849E0,2.230133390E1
6.485048339E0,-1.731441116E1,1.260544968E1,4.944112778E0,2.198022854E1
6.490037922E0,-1.854226494E1,1.201715660E1,1.043032885E0,2.212047828E1
6.495027558E0,-1.811666298E1,1.126963615E1,-5.853980541E0,2.212435908E1
6.499989172E0,-1.504432392E1,9.099558830E0,-9.728387833E0,2.009415793E1
6.504977401E0,-1.114873219E1,6.613785267E0,-1.057807350E1,1.673116923E1
6.509965578E0,-6.703819275E0,4.584568024E0,-1.204125595E1,1.452416269E1
6.514953808E0,-1.520306587E0,2.738773346E0,-1.471660137E1,1.504628085E1
6.519924537E0,4.088382244E0,4.606027603E-1,-1.944451141E1,1.987501065E1
6.524911881E0,9.750236511E0,-1.967432976E0,-2.441915894E1,2.636727570E1
6.529899172E0,1.395598221E1,-4.208314896E0,-2.643033791E1,3.018347421E1
6.534886516E0,1.509498596E1,-5.776638031E0,-2.298007584E1,2.809469761E1
6.539889485E0,1.310252762E1,-5.717583656E0,-1.263100815E1,1.907640846E1
6.544877610E0,8.494232178E0,-3.091350555E0,3.204959393E0,9.590630493E0
6.549865735E0,2.803159237E0,6.715030670E-1,1.837630081E1,1.860099593E1
6.554853860E0,-1.085955739E0,3.673230648E0,2.603771591E1,2.631795154E1
6.559805839E0,-2.323410511E0,4.478904724E0,2.785449028E1,2.830779844E1
6.564792193E0,-2.249263525E0,2.864875317E0,2.604214096E1,2.629562326E1
6.569778495E0,-5.887081623E0,5.916681290E-1,1.690652466E1,1.791196185E1
6.574764849E0,-9.964113235E0,-2.375084877E0,6.607685566E0,1.218958938E1
6.579765110E0,-1.110138321E1,-4.461470604E0,6.003738403E0,1.338619826E1
6.584752193E0,-1.358611393E1,-5.150021553E0,9.843281746E0,1.754979798E1
6.589739224E0,-1.652635002E1,-6.220652580E0,1.140477180E1,2.102107475E1
6.594726203E0,-1.783712006E1,-7.192202568E0,1.171567917E1,2.251994156E1
6.599687818E0,-1.610813713E1,-8.673410416E0,1.202754402E1,2.189433592E1
6.604673599E0,-8.729498863E0,-1.118984604E1,1.319140816E1,1.937601749E1
6.609659381E0,-4.020661712E-1,-1.271525288E1,1.388846016E1,1.883424112E1
6.614645110E0,5.606963158E0,-1.213982391E1,1.024267483E1,1.684416065E1
6.619639849E0,1.034645653E1,-1.159320068E1,4.790987015E0,1.626053570E1
6.624626047E0,1.308516026E1,-1.070167255E1,2.791347504E-1,1.690636361E1
6.629612245E0,1.322955132E1,-9.068929672E0,-3.559617996E-1,1.604347912E1
6.634598443E0,1.112917233E1,-6.719270706E0,2.619956493E0,1.326164573E1
6.639698443E0,8.236643791E0,-4.638201714E0,6.636160374E0,1.154962513E1
6.644798443E0,5.961022854E0,-3.715755463E0,9.599809647E0,1.189525020E1
6.649898443E0,4.765159130E0,-3.891194344E0,1.024457741E1,1.194987453E1
6.654998443E0,3.891375065E0,-4.597324371E0,8.419572830E0,1.035216875E1
6.660020735E0,2.218484640E0,-5.517059326E0,5.214653015E0,7.908996382E0
6.664925735E0,6.930898428E-1,-6.907234192E0,2.526717186E0,7.387459472E0
6.669830735E0,-6.031228304E-1,-9.382116318E0,-1.414878368E-1,9.402546600E0
6.674735735E0,-1.092571497E0,-1.262084103E1,-5.252311230E-1,1.267892773E1
6.679640735E0,-1.085318327E-1,-1.557942677E1,1.365808249E-1,1.558040345E1
6.684545735E0,1.917920113E0,-1.705626678E1,8.583769798E-1,1.718521065E1
6.689450735E0,4.036224365E0,-1.734002686E1,3.878629208E-2,1.780362724E1
6.694420006E0,5.569040298E0,-1.713909721E1,-1.189615369E0,1.806039999E1
6.699405943E0,6.491612911E0,-1.657566452E1,-2.277898788E0,1.794665750E1
6.704389745E0,6.576241970E0,-1.540802670E1,-3.490710974E0,1.711254827E1
6.709375631E0,5.881034851E0,-1.383992958E1,-4.625391006E0,1.573291021E1
6.714361464E0,5.099063396E0,-1.216861153E1,-5.023213387E0,1.411765656E1
6.719347297E0,4.104963303E0,-1.047576523E1,-5.385976315E0,1.247401786E1
6.724319641E0,3.284691811E0,-8.895359039E0,-5.854333401E0,1.114404919E1
6.729304797E0,2.746132374E0,-7.737870216E0,-6.366187572E0,1.038962091E1
6.734289953E0,2.060798168E0,-6.861357689E0,-7.762170315E0,1.056297337E1
6.739275162E0,1.469900131E0,-6.303209305E0,-9.830928802E0,1.177022579E1
6.744262818E0,1.546575069E0,-6.275076866E0,-1.156584263E1,1.324904524E1
6.749248131E0,2.004056454E0,-6.124751091E0,-1.306406403E1,1.456703769E1
6.754233443E0,2.606851816E0,-5.523703575E0,-1.423905373E1,1.549379323E1
6.759218756E0,3.326220989E0,-4.488291740E0,-1.510198116E1,1.610212234E1
6.764196724E0,4.104321480E0,-3.037205696E0,-1.539674568E1,1.622127772E1
6.769181672E0,4.981266022E0,-1.552941322E0,-1.542093372E1,1.627973694E1
6.774166568E0,5.781309128E0,-2.264986038E-1,-1.708871841E1,1.804159455E1
6.779151516E0,6.513145924E0,6.700801849E-1,-1.870092964E1,1.981400633E1
6.784137506E0,7.586733818E0,1.336309433E0,-1.846265221E1,2.000534377E1
6.789122506E0,8.380255699E0,1.871064186E0,-1.687419128E1,1.893324849E1
6.794107506E0,9.111351013E0,2.336431980E0,-1.409910107E1,1.694875460E1
6.799092453E0,9.670022964E0,2.686397076E0,-9.851450920E0,1.406332673E1
6.804077818E0,9.704466820E0,3.075789452E0,-4.982779980E0,1.133425134E1
6.809062870E0,9.260725021E0,3.415339947E0,-7.471563816E-1,9.898677565E0
6.814047870E0,8.543136597E0,3.895847797E0,2.237685680E0,9.652463425E0
6.819032870E0,7.892778397E0,4.901645660E0,3.597838163E0,9.963258526E0
6.824021360E0,7.834665298E0,6.548928261E0,4.270014763E0,1.106812847E1
6.829006516E0,8.503255844E0,8.447174072E0,4.780469418E0,1.290399154E1
6.833991724E0,9.125454903E0,1.013528633E1,4.734104633E0,1.443640201E1
6.838976828E0,9.352742195E0,1.182691574E1,3.411217213E0,1.545917609E1
6.843953495E0,9.422722816E0,1.293633461E1,2.023416519E0,1.613166677E1
6.848938287E0,1.095689678E1,1.279926300E1,-4.648976922E-1,1.685499482E1
6.853923026E0,1.380885029E1,1.210626316E1,-5.736641407E0,1.923941290E1
6.858907766E0,1.602676773E1,1.110955620E1,-7.775666237E0,2.099382072E1
6.863897297E0,1.620413399E1,8.955532074E0,-6.746686935E0,1.970515916E1
6.868882297E0,1.428648281E1,6.861507416E0,-2.798163176E0,1.609389923E1
6.873867297E0,1.167071342E1,5.076630592E0,8.986037970E-1,1.275873108E1
6.878852245E0,9.775694847E0,3.194488525E0,2.216525078E0,1.052054894E1
6.883836360E0,8.741935730E0,9.363441467E-1,2.054272175E0,9.028743813E0
6.888821308E0,9.007678032E0,-1.542554855E0,2.059897184E0,9.368079601E0
6.893806256E0,1.021633720E1,-4.264704704E0,1.278117418E0,1.114427370E1
6.898791151E0,1.121137810E1,-7.043476105E0,3.286331892E-1,1.324437821E1
6.903782922E0,1.084757233E1,-9.846134186E0,-4.230432510E-1,1.465589129E1
6.908768235E0,9.262439728E0,-1.249544144E1,-6.100842953E-1,1.556602227E1
6.913753495E0,7.285253048E0,-1.475997734E1,2.132043839E-1,1.646138813E1
6.918738808E0,4.859998703E0,-1.639876556E1,8.860456944E-1,1.712670944E1
6.923716360E0,2.691210747E0,-1.817123032E1,-7.533414364E-1,1.838487829E1
6.928701256E0,5.931609869E-1,-2.049052811E1,-1.593441725E0,2.056094936E1
6.933686203E0,-1.869771481E0,-2.388845253E1,2.265808582E-1,2.396258643E1
6.938671047E0,-4.663050175E0,-2.742365265E1,3.721750021E0,2.806514181E1
6.943661724E0,-6.013640404E0,-3.032859993E1,5.097135067E0,3.133637871E1
6.948646881E0,-7.006110191E0,-3.186680984E1,5.186420918E0,3.303752581E1
6.953632089E0,-6.844537258E0,-3.131728363E1,4.448513985E0,3.236370221E1
6.958617245E0,-4.880431652E0,-2.896045113E1,2.905518055E0,2.951217338E1
6.963614433E0,-2.078175545E0,-2.572840881E1,2.722585201E0,2.595539065E1
6.968600214E0,2.302836180E-1,-2.167021561E1,2.268242359E0,2.178981869E1
6.973586047E0,2.873138785E-1,-1.695708466E1,-1.660357952E0,1.704060028E1
6.978571828E0,-7.387011647E-1,-1.261557198E1,-4.005060196E0,1.325665278E1
6.983542974E0,3.759908974E-1,-9.511573792E0,-2.159382343E0,9.760857403E0
6.988528026E0,1.273828268E0,-7.203701019E0,-2.273902893E-1,7.318992634E0
6.993513078E0,2.219830751E0,-4.963671684E0,2.286877632E-1,5.442240646E0
6.998498131E0,4.568323135E0,-3.891368866E0,3.172992468E0,6.788240503E0
7.003486985E0,6.286215305E0,-3.996129990E0,4.960375309E0,8.949350868E0
7.008472245E0,8.237246513E0,-4.624371529E0,5.417606831E0,1.088978907E1
7.013457453E0,1.040984344E1,-5.012823105E0,5.096169472E0,1.262791271E1
7.018442714E0,1.047665024E1,-4.670067787E0,4.863389015E0,1.245882362E1
7.023428026E0,9.102504730E0,-3.775572777E0,5.310206413E0,1.119414286E1
7.028413287E0,7.710625648E0,-2.714357376E0,6.291244030E0,1.031509745E1
7.033398495E0,4.777392387E0,-7.459974289E-1,7.205185890E0,8.677251518E0
7.038383756E0,1.921864748E0,9.363503456E-1,8.545715332E0,8.809061619E0
7.043384641E0,-1.208140492E0,2.658913612E0,1.026656151E1,1.067387981E1
7.048370683E0,-4.539916992E0,4.210993290E0,1.176360035E1,1.329381826E1
7.053356672E0,-7.361789227E0,5.404085159E0,1.323538780E1,1.608028505E1
7.058342714E0,-1.032048893E1,7.018935204E0,1.406072807E1,1.880111744E1
7.063296047E0,-1.267878532E1,8.528999329E0,1.401036835E1,2.073127705E1
7.068280422E0,-1.431396866E1,9.656611443E0,1.337262917E1,2.183957541E1
7.073264849E0,-1.549170589E1,1.073807526E1,1.291893959E1,2.285165665E1
7.078249276E0,-1.645056725E1,1.158305264E1,1.316027832E1,2.404123950E1
7.083245526E0,-1.783615875E1,1.250247383E1,1.411896038E1,2.595737763E1
7.088230526E0,-2.020300674E1,1.370737839E1,1.458578491E1,2.843938862E1
7.093215526E0,-2.252561951E1,1.475454330E1,1.511474228E1,3.087969424E1
7.098200474E0,-2.368409538E1,1.561297512E1,1.555552292E1,3.235236714E1
7.103181620E0,-2.291338921E1,1.621276855E1,1.587370110E1,3.224673093E1
7.108166412E0,-2.030420685E1,1.632048035E1,1.623931122E1,3.069746119E1
7.113151203E0,-1.676200294E1,1.577466202E1,1.687417603E1,2.854019133E1
7.118135995E0,-1.495588303E1,1.581624699E1,1.677339554E1,2.748051862E1
7.123120787E0,-1.484581947E1,1.621077728E1,1.541851425E1,2.684992063E1
7.128105631E0,-1.570730114E1,1.636455154E1,1.312119198E1,2.620464721E1
7.133090370E0,-1.638022614E1,1.600005722E1,1.014096546E1,2.504301938E1
7.138075214E0,-1.626004028E1,1.504129124E1,7.494886398E0,2.338381223E1
7.143071776E0,-1.539092827E1,1.394179058E1,4.994647503E0,2.135885534E1
7.148057141E0,-1.365863609E1,1.270276260E1,2.500367165E0,1.881941427E1
7.153042453E0,-1.070328808E1,1.116814709E1,1.894824505E-1,1.547009336E1
7.158027922E0,-6.648821831E0,9.370701790E0,-1.784425020E0,1.162759891E1
7.163005891E0,-2.177844524E0,7.152114868E0,-2.159944534E0,7.782102174E0
7.167990891E0,1.728302956E0,4.912684441E0,-1.526668549E0,5.426989624E0
7.172975891E0,5.283482552E0,3.117041111E0,-2.473390102E0,6.614286943E0
7.177960891E0,8.255023003E0,1.802795887E0,-5.385952473E0,1.002017773E1
7.182942922E0,1.019000721E1,6.955051422E-1,-9.153868675E0,1.371543970E1
7.187927766E0,1.105824947E1,-2.715539932E-1,-1.262516499E1,1.678551202E1
7.192912662E0,1.128142738E1,-1.305876732E0,-1.524508476E1,1.901022165E1
7.197897558E0,1.067402554E1,-2.250569344E0,-1.448488045E1,1.813316423E1
7.202883808E0,8.663909912E0,-2.667255402E0,-9.620689392E0,1.321874619E1
7.207868703E0,5.500162601E0,-2.014802933E0,-3.142881155E0,6.647474818E0
7.212853703E0,2.051094055E0,-2.103185654E-1,3.984983444E0,4.486793262E0
7.217838599E0,-6.907789707E-1,2.119039536E0,1.151523590E1,1.172894548E1
7.222834068E0,-3.088214159E0,4.568397999E0,1.806234360E1,1.888532719E1
7.227819537E0,-5.486157894E0,6.206756592E0,2.052954102E1,2.213783662E1
7.232804953E0,-7.339391232E0,5.940213203E0,1.998691940E1,2.210497102E1
7.237790474E0,-1.120507240E1,3.237197876E0,1.844723511E1,2.182506771E1
7.242770839E0,-1.966985321E1,-2.422637939E0,1.562022400E1,2.523417717E1
7.247755995E0,-2.936130333E1,-1.215450954E1,1.614332199E-2,3.177764145E1
7.252741203E0,-3.106937790E1,-2.145258713E1,-4.412150383E-1,3.775863356E1
7.257726412E0,-2.150505447E1,-2.889987564E1,2.280940819E1,4.263729919E1
7.262703808E0,-1.109202003E1,-3.036595535E1,2.736936760E1,4.235807403E1
7.267688599E0,-2.978081703E0,-2.823967934E1,1.536817169E1,3.228822016E1
7.272673391E0,5.802617550E0,-2.342546844E1,-4.639854431E0,2.457541844E1
7.277658235E0,1.089134693E1,-1.686804962E1,-1.983625221E1,2.822462467E1
7.282638651E0,1.122298813E1,-9.885721207E0,-2.460363007E1,2.879273448E1
7.287623287E0,9.292355537E0,-3.379180908E0,-1.990257835E1,2.222339668E1
7.292607870E0,6.086195946E0,1.680335045E0,-4.905142307E0,7.995356653E0
7.297592506E0,4.457906723E0,5.270674229E0,4.481605530E0,8.230293269E0
7.302592141E0,2.856371641E0,7.465183258E0,1.016655064E1,1.293238462E1
7.307577506E0,9.953081608E-3,8.388553619E0,1.547675037E1,1.760391244E1
7.312562818E0,-3.001455545E0,8.111456871E0,1.883102798E1,2.072226056E1
7.317548183E0,-3.898549795E0,6.696677208E0,1.917432976E1,2.068088726E1
7.322528703E0,-2.599710226E0,4.214349747E0,1.804216957E1,1.870933243E1
7.327513860E0,-1.525744796E0,8.166522980E-1,1.377974606E1,1.388798832E1
7.332498912E0,-1.253593922E0,-3.653133392E0,7.604475498E0,8.529063777E0
7.337484068E0,2.026949406E0,-1.218404198E1,-3.346938372E0,1.279692929E1
7.342468183E0,9.524918556E0,-2.354960060E1,-5.335122585E0,2.595710490E1
7.347453287E0,1.728116989E1,-3.313516617E1,-1.003273487E0,3.738428316E1
7.352438287E0,2.325697899E1,-3.851688766E1,1.199814320E0,4.500974629E1
7.357423391E0,2.594593239E1,-3.775977325E1,2.674221396E-1,4.581553665E1
7.362408131E0,2.327102089E1,-3.127629852E1,-3.017601252E0,3.910055217E1
7.367393131E0,1.775489807E1,-2.411881256E1,-8.891762733E0,3.124127029E1
7.372378235E0,1.029578781E1,-1.726772308E1,-1.340216923E1,2.416186349E1
7.377363235E0,3.210839748E0,-1.134413719E1,-1.437005711E1,1.858756256E1
7.382346672E0,-2.649050713E0,-7.313833237E0,-1.220955563E1,1.447697741E1
7.387331620E0,-7.660190582E0,-4.255211830E0,-8.554392815E0,1.224593744E1
7.392316568E0,-1.138168907E1,-2.476003647E0,-6.871789932E0,1.352386546E1
7.397301568E0,-1.326088905E1,-1.874700546E0,-7.614321709E0,1.540595910E1
7.402284693E0,-1.233736897E1,-2.229423523E0,-7.719105721E0,1.472296150E1
7.407269537E0,-9.145790100E0,-3.282031059E0,-8.732882500E0,1.306447248E1
7.412254433E0,-5.350278854E0,-3.816934586E0,-1.124229908E1,1.302243303E1
7.417239276E0,-1.138242126E0,-4.002067566E0,-1.245206356E1,1.312882428E1
7.422225787E0,2.009229183E0,-2.999388695E0,-1.292318535E1,1.341797503E1
7.427210735E0,5.190436363E0,-1.185236931E0,-1.191751862E1,1.305268808E1
7.432195683E0,9.574487686E0,-2.468461990E-1,-1.214029312E1,1.546345578E1
7.437180578E0,1.294651794E1,4.526252747E-1,-1.361594105E1,1.879390984E1
7.442178808E0,1.507806015E1,1.716506958E0,-1.407022858E1,2.069457963E1
7.447164433E0,1.679962540E1,2.959779263E0,-1.433530426E1,2.228202538E1
7.452150058E0,1.767293358E1,3.550972939E0,-1.442227745E1,2.308558158E1
7.457135683E0,1.735283089E1,4.156418800E0,-1.366930008E1,2.247768497E1
7.462110214E0,1.555377293E1,5.118463039E0,-1.167393780E1,2.010968274E1
7.467095266E0,1.327243042E1,5.620791435E0,-7.737306595E0,1.635899199E1
7.472080370E0,1.099254799E1,5.895505428E0,-3.116782188E0,1.285719358E1
7.477065422E0,9.006227493E0,6.301287651E0,4.088938236E-1,1.099934334E1
7.482048703E0,7.624553680E0,7.155694485E0,2.007618666E0,1.064745580E1
7.487033651E0,6.852102280E0,8.194797516E0,1.022799969E0,1.073089613E1
7.492018651E0,6.451552391E0,9.265224457E0,-1.500462055E0,1.138939414E1
7.497003599E0,6.166173935E0,1.025951576E1,-4.237556458E0,1.269788366E1
7.501990422E0,5.959438801E0,1.041774368E1,-6.665202141E0,1.372840901E1
7.506975422E0,6.394652367E0,9.468923569E0,-7.639992714E0,1.374487472E1
7.511960474E0,6.926539421E0,8.402509689E0,-6.849490166E0,1.286447173E1
7.516945578E0,6.855347633E0,7.864173412E0,-5.325313568E0,1.171323948E1
7.521932922E0,6.293120384E0,7.713834763E0,-4.048414230E0,1.074691903E1
7.526918078E0,5.572331429E0,7.737020016E0,-3.104408264E0,1.002744768E1
7.531903235E0,4.760628223E0,7.741160393E0,-2.680740833E0,9.474994286E0
7.536888443E0,4.067125320E0,7.471976757E0,-2.779464245E0,8.949713209E0
7.541880422E0,3.460528135E0,6.962878227E0,-3.197602749E0,8.407234475E0
7.546865943E0,2.793051243E0,6.407455444E0,-3.731837273E0,7.923586937E0
7.551851464E0,2.161005259E0,5.793455601E0,-4.061282635E0,7.397843481E0
7.556836985E0,1.574022770E0,4.969869614E0,-3.753405571E0,6.423799891E0
7.561805683E0,1.229231954E0,3.859862804E0,-2.858729839E0,4.958012541E0
7.566790370E0,1.050774455E0,2.549370289E0,-1.795176029E0,3.290299804E0
7.571775058E0,9.862117767E-1,9.661664963E-1,-6.329604387E-1,1.518792377E0
7.576759693E0,1.144636035E0,-1.158006668E0,5.498902798E-1,1.718589659E0
7.581745683E0,1.336110115E0,-3.978722572E0,1.153998613E0,4.352830843E0
7.586730422E0,1.254539847E0,-7.663295746E0,1.344856858E0,7.880901718E0
7.591715162E0,7.015223503E-1,-1.190989304E1,1.233256817E0,1.199410722E1
7.596699901E0,-3.444035351E-1,-1.586428547E1,-3.372961283E-1,1.587160786E1
7.601689537E0,-2.130979538E0,-1.924483109E1,-4.434005737E0,1.986366039E1
7.606674537E0,-3.902612209E0,-2.228002167E1,-8.308110237E0,2.409677247E1
7.611659485E0,-5.826993465E0,-2.464118576E1,-1.047035217E1,2.740018546E1
7.616644485E0,-8.192064285E0,-2.588233566E1,-9.858343124E0,2.888238470E1
7.621626620E0,-1.041389656E1,-2.621459579E1,-6.939804077E0,2.904849660E1
7.626611464E0,-1.214956284E1,-2.580500031E1,-3.236952543E0,2.870518733E1
7.631596308E0,-1.353665352E1,-2.524785995E1,-6.977896690E-1,2.865627909E1
7.636581151E0,-1.435035324E1,-2.432430077E1,1.193240285E0,2.826708454E1
7.641566776E0,-1.508744907E1,-2.251199341E1,3.374099255E0,2.730943999E1
7.646551672E0,-1.608905411E1,-2.027611542E1,6.156136036E0,2.660594914E1
7.651536516E0,-1.642952728E1,-1.830202866E1,9.644314766E0,2.641791867E1
7.656521412E0,-1.584994221E1,-1.634349823E1,9.818737030E0,2.479391456E1
7.661506620E0,-1.439209652E1,-1.389406300E1,6.878314018E0,2.115392712E1
7.666491516E0,-1.186253929E1,-1.104155254E1,4.901094913E0,1.693093182E1
7.671476412E0,-7.119017601E0,-8.604657173E0,4.401834965E0,1.200402798E1
7.676461308E0,-1.072040915E0,-7.227292061E0,2.934413433E0,7.873614447E0
7.681450110E0,4.535115242E0,-6.716798782E0,1.017254591E0,8.168075847E0
7.686435162E0,8.663643837E0,-6.592788696E0,1.298734188E0,1.096404569E1
7.691420266E0,9.359267235E0,-5.329559326E0,1.676329613E0,1.090000765E1
7.696405370E0,8.645382881E0,-3.325310707E0,2.556143999E0,9.609069081E0
7.701385683E0,7.496691704E0,-1.062138557E0,3.423216820E0,8.309448731E0
7.706370526E0,5.126149178E0,1.751892567E0,3.710152626E0,6.565955031E0
7.711355422E0,3.660712481E0,4.259229183E0,4.210684299E0,7.019381124E0
7.716340266E0,2.687106133E0,6.753100872E0,4.389999866E0,8.490995795E0
7.721332610E0,2.178846836E0,8.710163116E0,4.263454914E0,9.939384430E0
7.726317818E0,1.732871294E0,1.004677105E1,4.675665379E0,1.121616236E1
7.731303078E0,1.324950933E0,1.111455631E1,5.431188583E0,1.244132897E1
7.736288339E0,5.591204166E-1,1.165715027E1,6.046322346E0,1.314381155E1
7.741270370E0,-1.565960646E0,1.209807968E1,6.171814442E0,1.367139562E1
7.746255422E0,-4.238236904E0,1.249335098E1,5.974425793E0,1.448241121E1
7.751240474E0,-7.122987747E0,1.271547699E1,6.458882332E0,1.594168970E1
7.756225578E0,-9.863777161E0,1.321859264E1,7.182627678E0,1.798931438E1
7.761221985E0,-1.214079285E1,1.406819630E1,7.115670204E0,1.989838588E1
7.766207558E0,-1.509591293E1,1.565063000E1,6.753499985E0,2.276924612E1
7.771193235E0,-1.677608490E1,1.688524246E1,7.295171261E0,2.489513931E1
7.776178860E0,-1.822657394E1,1.800709152E1,8.275621414E0,2.692488166E1
7.781147089E0,-1.920466042E1,1.895957947E1,1.000212669E1,2.878067361E1
7.786131881E0,-1.861004829E1,1.896862030E1,1.284164429E1,2.951356098E1
7.791116620E0,-1.670015717E1,1.873282242E1,1.509695244E1,2.928705957E1
7.796101412E0,-1.407450104E1,1.893029404E1,1.587135315E1,2.843145200E1
7.801092401E0,-1.142379189E1,1.894544983E1,1.573004627E1,2.714530247E1
7.806077506E0,-9.611402512E0,1.882176399E1,1.486003017E1,2.583521540E1
7.811062610E0,-8.928216934E0,1.831759262E1,1.293558025E1,2.413662142E1
7.816047662E0,-8.259992599E0,1.666034317E1,8.735744476E0,2.054526086E1
7.821028703E0,-6.618480206E0,1.403179169E1,3.620341778E0,1.593117487E1
7.826013599E0,-4.119867325E0,1.096059322E1,-1.207447052E-2,1.170931494E1
7.830998443E0,-1.787666678E0,7.333030224E0,2.338297367E-1,7.551407866E0
7.835983339E0,4.245591164E-1,3.365980625E0,2.292809486E0,4.094759010E0
7.841083339E0,3.235009909E0,-3.536243439E-1,1.716762304E0,3.679349412E0
7.846169068E0,5.734339237E0,-2.838212967E0,-1.208788395E0,6.511472085E0
7.851164328E0,7.389417171E0,-3.506182671E0,-4.639039993E0,9.403057753E0
7.856159641E0,8.736938477E0,-3.433426857E0,-9.555255890E0,1.339497775E1
7.861064641E0,1.002370548E1,-3.741607666E0,-1.508337688E1,1.849277042E1
7.865969641E0,1.057682800E1,-4.814584732E0,-1.947550964E1,2.267917531E1
7.870872922E0,9.182433128E0,-6.105454445E0,-2.167821121E1,2.432156437E1
7.875855839E0,5.085779190E0,-6.808790207E0,-2.028202248E1,2.199057093E1
7.880856412E0,-1.059533119E0,-6.279875755E0,-1.026728821E1,1.208208000E1
7.885840266E0,-8.042697906E0,-5.268046379E0,4.173256874E0,1.048109609E1
7.890824120E0,-1.692590904E1,-5.439043999E0,1.227131462E1,2.160219339E1
7.895807974E0,-2.755497360E1,-9.983178139E0,1.311554909E1,3.210853537E1
7.900797662E0,-4.260786057E1,-2.258630753E1,1.352827835E1,5.008578026E1
7.905781724E0,-4.763779068E1,-3.168840027E1,-1.268198490E1,5.860329815E1
7.910765891E0,-3.054847145E1,-2.872049522E1,-1.538687229E1,4.466353986E1
7.915750058E0,-1.369160366E1,-2.011137962E1,1.524196720E1,2.870967024E1
7.920731620E0,-4.813335419E0,-1.301422691E1,2.961760330E1,3.270689110E1
7.925715631E0,-7.740879059E-1,-5.521546364E0,2.501655388E1,2.563034636E1
7.930699641E0,8.035256863E-1,1.526326180E0,1.616644287E1,1.625820409E1
7.935683651E0,8.453867435E-1,6.962877274E0,1.170306778E1,1.364397794E1
7.940681933E0,-3.689982891E-1,1.020997810E1,1.076979065E1,1.484480391E1
7.945666620E0,-4.426617622E-1,1.197483253E1,7.728260994E0,1.425898249E1
7.950651360E0,-7.267079353E-1,1.303079319E1,2.516871214E0,1.329151294E1
7.955636099E0,-2.744048119E0,1.305326366E1,5.484389067E-1,1.334984186E1
7.960613235E0,-4.978545189E0,1.221809387E1,-5.806195736E-2,1.319360077E1
7.965597610E0,-6.929665565E0,9.378922462E0,-2.116638422E-2,1.166125634E1
7.970581985E0,-8.492938042E0,5.298898697E0,8.302363157E-1,1.004478055E1
7.975566308E0,-9.088640213E0,8.190584183E-1,2.141362429E0,9.373348957E0
7.980544953E0,-8.188941956E0,-5.244213104E0,5.791736603E0,1.131833708E1
7.985528964E0,-5.277536869E0,-1.322089672E1,8.498821259E0,1.657933860E1
7.990513026E0,5.749536157E-1,-2.089619064E1,5.225401878E0,2.154730099E1
7.995497089E0,9.054225922E0,-2.928376770E1,5.106328964E0,3.107398676E1
8.000478287E0,1.907346916E1,-3.797112274E1,8.102385521E0,4.325797082E1
8.005462245E0,2.860233688E1,-4.444211960E1,9.427597046E0,5.368496303E1
8.010446099E0,3.485733795E1,-4.498973846E1,5.287690639E0,5.715829116E1
8.015430006E0,3.492646027E1,-3.711994171E1,-2.627687454E-1,5.096878208E1
8.020433756E0,2.850942612E1,-2.687919998E1,-5.705720901E0,3.959588388E1
8.025418651E0,2.197199249E1,-2.018841934E1,-1.203681850E1,3.217492392E1
8.030403547E0,1.482053375E1,-1.503284550E1,-1.810061455E1,2.780767720E1
8.035388495E0,6.871497631E0,-1.066282654E1,-2.011565399E1,2.378135583E1
8.040339433E0,-1.936961770E0,-7.120156288E0,-1.603706932E1,1.765321611E1
8.045322870E0,-1.096051884E1,-4.421868324E0,-1.154356956E1,1.652089256E1
8.050306360E0,-1.690881348E1,-3.249687195E0,-6.794646263E0,1.851042025E1
8.055289849E0,-1.779753494E1,-4.353760719E0,-3.870048523E0,1.872657892E1
8.060273391E0,-1.497044373E1,-6.177417755E0,-4.811501026E0,1.689453218E1
8.065304745E0,-8.263108253E0,-8.603585243E0,-8.923009872E0,1.489700447E1
8.070290631E0,-7.419718504E-1,-1.045447636E1,-1.318673420E1,1.684448150E1
8.075276516E0,5.265644550E0,-1.022587872E1,-1.624833488E1,1.990738543E1
8.080262506E0,9.257106781E0,-8.441810608E0,-1.711157608E1,2.120764551E1
8.085231568E0,1.188981724E1,-6.208409309E0,-1.899255753E1,2.325143741E1
8.090216620E0,1.374478245E1,-3.229533195E0,-1.879464149E1,2.350717929E1
8.095201672E0,1.353437424E1,6.941699982E-1,-1.602412796E1,2.098651555E1
8.100186776E0,1.244826031E1,4.080641270E0,-1.241762447E1,1.805015832E1
8.105173183E0,1.123033524E1,6.520250320E0,-6.615995407E0,1.457413768E1
8.110158287E0,1.053953838E1,8.677069664E0,-2.296946049E0,1.384374835E1
8.115143443E0,1.036299896E1,1.009258461E1,1.495695114E-2,1.446555341E1
8.120128599E0,1.011358929E1,1.088755703E1,4.559397697E-2,1.486020407E1
8.125123235E0,9.747558594E0,1.129930687E1,-4.605669975E-1,1.492988132E1
8.130108860E0,9.163637161E0,1.186396122E1,-1.150173545E0,1.503491673E1
8.135094485E0,8.769277573E0,1.254195213E1,-1.866484880E0,1.541702171E1
8.140080110E0,8.846747398E0,1.333835983E1,-3.582031012E0,1.640145508E1
8.145062870E0,9.416901588E0,1.420068550E1,-6.553891659E0,1.825625920E1
8.150048339E0,1.068143368E1,1.451738834E1,-9.418795586E0,2.033620663E1
8.155033808E0,1.237287998E1,1.330029678E1,-1.021482658E1,2.084055507E1
8.160019276E0,1.342610455E1,1.008855152E1,-8.172966003E0,1.867716596E1
8.165003391E0,1.294311523E1,7.051219463E0,-5.319645882E0,1.566979771E1
8.169988808E0,1.141443729E1,5.657384872E0,-3.348056793E0,1.317212461E1
8.174974172E0,9.748910904E0,5.190698624E0,-2.730621338E0,1.137721007E1
8.179959589E0,8.386301041E0,5.046359062E0,-3.046952248E0,1.025083913E1
8.184934276E0,7.319614887E0,4.950993538E0,-3.990198851E0,9.695915943E0
8.189919120E0,6.354178429E0,4.770594597E0,-5.666666031E0,9.759367818E0
8.194904016E0,5.353739738E0,4.351955891E0,-7.637744904E0,1.029257968E1
8.199888912E0,4.136684418E0,3.530188560E0,-9.247178078E0,1.072775334E1
8.204884433E0,2.819138527E0,2.518427849E0,-9.334913254E0,1.007127729E1
8.209869797E0,1.213623762E0,1.631775856E0,-8.236852646E0,8.484180372E0
8.214855214E0,-4.457326829E-1,1.070002556E0,-6.518648148E0,6.620903017E0
8.219840631E0,-1.660846949E0,2.886428833E-1,-4.238292217E0,4.561233191E0
8.224823860E0,-2.212097168E0,-8.804302216E-1,-1.413175583E0,2.768681362E0
8.229809172E0,-1.952306151E0,-2.497233391E0,9.926747680E-1,3.321607610E0
8.234794485E0,-1.363940835E0,-4.750706673E0,2.963760376E0,5.763108888E0
8.239779797E0,-8.024600148E-1,-7.741097450E0,4.925015926E0,9.210011601E0
8.244879797E0,-6.016101837E-1,-1.077704144E1,5.295693874E0,1.202293352E1
8.249979797E0,-1.409150362E0,-1.354134178E1,2.533250809E0,1.384814073E1
8.255079797E0,-2.882920265E0,-1.657537460E1,-2.701470852E0,1.703972468E1
8.260090422E0,-4.644179344E0,-2.007518387E1,-8.113206863E0,2.214510182E1
8.265090787E0,-6.086331367E0,-2.333795166E1,-1.160640812E1,2.676587616E1
8.269995787E0,-6.850520134E0,-2.556481934E1,-1.237613964E1,2.921743394E1
8.274900787E0,-7.715235233E0,-2.659455490E1,-1.126669312E1,2.989537722E1
8.279805787E0,-8.334735870E0,-2.681523514E1,-8.529951096E0,2.934765277E1
8.284710787E0,-8.324140549E0,-2.617655563E1,-5.173983574E0,2.795126986E1
8.289616881E0,-8.141726494E0,-2.470955467E1,-1.644518375E0,2.606826122E1
8.294599589E0,-7.574326038E0,-2.291025352E1,2.182059765E0,2.422832054E1
8.299582297E0,-7.790489674E0,-2.090111923E1,5.149458885E0,2.289247565E1
8.304565058E0,-8.944928169E0,-1.896692657E1,6.611554146E0,2.198792150E1
8.309566203E0,-9.663310051E0,-1.733136368E1,7.150629044E0,2.109234989E1
8.314549849E0,-8.837909698E0,-1.628879929E1,8.033813477E0,2.019841056E1
8.319533495E0,-7.061491013E0,-1.523151875E1,8.597652435E0,1.886222272E1
8.324517141E0,-4.280858994E0,-1.355254269E1,8.785202026E0,1.670858886E1
8.329508599E0,1.728296280E-2,-1.165900421E1,8.429008484E0,1.438682946E1
8.334492662E0,5.179639339E0,-1.010614491E1,5.350345135E0,1.255344660E1
8.339476724E0,1.118939972E1,-1.001107216E1,2.924431562E0,1.529629144E1
8.344460735E0,1.498250198E1,-9.294527054E0,2.971330881E0,1.787994424E1
8.349444537E0,1.496980000E1,-7.103387833E0,2.997953415E0,1.683866845E1
8.354428599E0,1.270998287E1,-4.092986107E0,3.853617668E0,1.389771812E1
8.359412610E0,9.540816307E0,-7.319374084E-1,5.276162624E0,1.092706732E1
8.364396672E0,5.868416309E0,2.660877705E0,5.977611542E0,8.789221802E0
8.369402766E0,1.721576691E0,6.030054092E0,5.614658356E0,8.417230371E0
8.374387922E0,-1.685192108E0,8.723695755E0,5.117657185E0,1.025344601E1
8.379373026E0,-4.456925869E0,1.069932652E1,5.738346577E0,1.293322843E1
