"Time (s)","Linear Acceleration x (m/s^2)","Linear Acceleration y (m/s^2)","Linear Acceleration z (m/s^2)","Absolute acceleration (m/s^2)"
6.785356000E-2,0.000000000E0,0.000000000E0,0.000000000E0,0.000000000E0
7.283423700E-2,-3.812265396E-2,2.438378334E-2,3.795528412E-2,5.906360324E-2
7.781486200E-2,-7.588982582E-2,6.037926674E-2,1.044292450E-1,1.425145211E-1
8.279553900E-2,-1.206617355E-1,4.164266586E-2,1.725263596E-1,2.146129325E-1
8.780772600E-2,-1.949260235E-1,7.001399994E-3,2.077322006E-1,2.849523494E-1
9.279475800E-2,-2.349972725E-1,-1.127243042E-2,2.817487717E-1,3.670601532E-1
9.778178900E-2,-2.476279736E-1,-4.244089127E-3,3.616304398E-1,4.383083396E-1
1.027687680E-1,-2.099058628E-1,-4.412460327E-2,5.399951935E-1,5.810355074E-1
1.077460600E-1,-1.421308517E-1,-6.974148750E-2,7.012901306E-1,7.189387327E-1
1.127311640E-1,-9.910631180E-2,-6.833100319E-2,7.634010315E-1,7.728339549E-1
1.177162160E-1,-3.232955933E-2,-8.367085457E-2,7.851104736E-1,7.902179877E-1
1.227012680E-1,9.865069389E-2,-6.433296204E-2,7.536087036E-1,7.627560341E-1
1.276812160E-1,1.995303631E-1,-6.815457344E-2,5.766544342E-1,6.139932802E-1
1.326652780E-1,2.857739925E-1,-6.906151772E-2,3.747463226E-1,4.763098512E-1
1.376492890E-1,3.045129776E-1,-4.024147987E-2,2.761211395E-1,4.130259240E-1
1.426332990E-1,2.829566002E-1,1.692676544E-2,2.302818298E-1,3.652131900E-1
1.476210600E-1,2.864353657E-1,7.189226151E-2,1.637029648E-1,3.376571881E-1
1.526058510E-1,2.342371941E-1,1.026480198E-1,3.170585632E-2,2.576993216E-1
1.575906430E-1,1.494863033E-1,1.265656948E-1,-8.612251282E-2,2.139675611E-1
1.625754350E-1,1.082563400E-2,1.441168785E-1,-1.867170334E-1,2.361146323E-1
1.675638200E-1,-1.117396355E-1,1.878035069E-1,-2.463169098E-1,3.292839555E-1
1.725493410E-1,-1.582953930E-1,2.112185955E-1,-3.401222229E-1,4.305274126E-1
1.775348620E-1,-2.082915306E-1,2.064354420E-1,-4.417915344E-1,5.302647578E-1
1.825203830E-1,-2.248988152E-1,1.793835163E-1,-5.216197968E-1,5.956887907E-1
1.875096530E-1,-2.205960751E-1,1.630342007E-1,-5.302419662E-1,5.969918942E-1
1.924960080E-1,-1.800758839E-1,8.091521263E-2,-4.887504578E-1,5.271163112E-1
1.974822580E-1,-1.485543251E-1,4.361701012E-2,-4.356546402E-1,4.623481336E-1
2.024685080E-1,-1.073334217E-1,4.023265839E-2,-3.688182831E-1,3.862202172E-1
2.074353830E-1,-7.798361778E-2,2.088356018E-2,-2.720985413E-1,2.838224513E-1
2.124177780E-1,-3.476834297E-2,1.148581505E-2,-2.456798553E-1,2.483935445E-1
2.174001740E-1,2.923583984E-2,2.075314522E-2,-1.690597534E-1,1.728196389E-1
2.223825700E-1,6.014895439E-2,-3.551626205E-2,-2.501201630E-2,7.419503045E-2
2.273819450E-1,8.662796021E-2,-3.510355949E-2,9.207153320E-2,1.312014886E-1
2.323678300E-1,7.616233826E-2,-3.548908234E-2,1.739692688E-1,1.931980415E-1
2.373536640E-1,2.043151855E-2,5.083322525E-3,2.079324722E-1,2.089956940E-1
2.423394970E-1,-3.981208801E-2,5.305290222E-2,1.301212311E-1,1.460518660E-1
2.473155390E-1,-1.136386395E-1,8.739185333E-2,-3.569793701E-2,1.477342855E-1
2.522993410E-1,-1.234345436E-1,1.159026623E-1,-2.527685165E-1,3.042391110E-1
2.572831950E-1,-1.007781029E-1,1.135351658E-1,-4.946899414E-1,5.174597550E-1
2.622670490E-1,-1.161313057E-1,1.187050343E-1,-6.726598740E-1,6.928554477E-1
2.672483510E-1,-1.144857407E-1,7.557368279E-2,-8.214087486E-1,8.327849054E-1
2.722316850E-1,-7.706212997E-2,1.185200214E-1,-9.326090813E-1,9.432630947E-1
2.772150180E-1,-5.609202385E-2,1.357600689E-1,-9.745330811E-1,9.855413931E-1
2.821982990E-1,-4.173183441E-2,1.348176003E-1,-9.885449409E-1,9.985681908E-1
2.872068930E-1,-2.863335609E-2,1.210482121E-1,-1.120656013E0,1.127538221E0
2.921953830E-1,2.914905548E-3,8.088731766E-2,-1.188437462E0,1.191190520E0
2.971838720E-1,-1.422858238E-2,2.687692642E-2,-1.111763000E0,1.112178848E0
3.021723620E-1,-4.335474968E-2,6.730723381E-2,-9.195818901E-1,9.230605347E-1
3.071276740E-1,-1.273307800E-1,1.226890087E-1,-7.028317451E-1,7.247331801E-1
3.121094970E-1,-2.007977962E-1,1.738457680E-1,-5.856676102E-1,6.430774880E-1
3.170912680E-1,-2.063724995E-1,1.333975792E-1,-5.842313766E-1,6.338066141E-1
3.220730910E-1,-2.839021683E-1,1.415252686E-1,-5.130872726E-1,6.032316240E-1
3.270522050E-1,-3.762068748E-1,1.551566124E-1,-3.874664307E-1,5.619033920E-1
3.320334550E-1,-4.581534863E-1,8.488368988E-2,-3.043270111E-1,5.565292333E-1
3.370147050E-1,-5.568449497E-1,5.903625488E-2,-2.507429123E-1,6.135418368E-1
3.419959550E-1,-6.136629581E-1,7.426714897E-2,-2.283124924E-1,6.589570773E-1
3.470094450E-1,-6.623535156E-1,6.391191483E-2,-1.846809387E-1,6.905823352E-1
3.519972050E-1,-6.043834686E-1,-2.618885040E-2,-7.527542114E-2,6.096159628E-1
3.569849140E-1,1.516666412E-1,-4.798409939E-1,1.507205963E-1,5.253254683E-1
3.619726740E-1,4.506905079E-1,-6.684534550E-1,6.989955902E-1,1.067027080E0
3.669691330E-1,1.206185818E-1,-2.730841637E-1,8.982038498E-1,9.465167502E-1
3.719573620E-1,4.076981544E-2,2.280068398E-2,9.520492554E-1,9.531945414E-1
3.769455390E-1,2.482652664E-2,1.833307743E-1,1.002062798E0,1.018997733E0
3.819337680E-1,7.655382156E-3,2.534542084E-1,9.257745743E-1,9.598730140E-1
3.868764240E-1,3.894758224E-2,1.852636337E-1,7.155342102E-1,7.401545339E-1
3.918623620E-1,4.091334343E-2,1.202442646E-1,4.200973511E-1,4.388785358E-1
3.968482470E-1,3.107833862E-2,1.127080917E-1,1.087741852E-1,1.596897005E-1
4.018341330E-1,-1.803493500E-2,1.106603146E-1,-1.951990128E-1,2.251080156E-1
4.068098100E-1,-7.241892815E-2,1.147055626E-1,-4.947767258E-1,5.130359399E-1
4.117952260E-1,-1.432304382E-1,1.419889927E-1,-7.693185806E-1,7.953156046E-1
4.167805910E-1,-2.137525082E-1,1.858570576E-1,-9.321985245E-1,9.742828489E-1
4.217660600E-1,-2.299032211E-1,2.865910530E-1,-1.044122219E0,1.106879005E0
4.267485080E-1,-2.683835030E-1,3.776664734E-1,-1.091658115E0,1.185908559E0
4.317337680E-1,-3.528904915E-1,3.910689354E-1,-1.120564938E0,1.238197234E0
4.367190280E-1,-3.766610622E-1,4.410765171E-1,-1.119200706E0,1.260568233E0
4.417042890E-1,-3.785181046E-1,5.104854107E-1,-1.085464001E0,1.257816921E0
4.467241850E-1,-4.085953236E-1,5.445742607E-1,-1.043277740E0,1.245768722E0
4.517111640E-1,-4.265782833E-1,5.765552521E-1,-9.618244171E-1,1.199787981E0
4.566981430E-1,-4.588484764E-1,5.804669857E-1,-9.337005615E-1,1.191335630E0
4.616851220E-1,-4.744217396E-1,5.799639225E-1,-9.368548393E-1,1.199637916E0
4.666530910E-1,-4.831411839E-1,5.890090466E-1,-9.423756599E-1,1.211787500E0
4.716391330E-1,-4.782209396E-1,5.956852436E-1,-9.667315483E-1,1.232114468E0
4.766251740E-1,-4.743793011E-1,6.095538139E-1,-9.836006165E-1,1.250624542E0
4.816112160E-1,-4.598586559E-1,6.163880825E-1,-1.007262230E0,1.267273235E0
4.865760600E-1,-4.727430344E-1,5.854296684E-1,-1.063606262E0,1.302870736E0
4.915610600E-1,-5.034253597E-1,5.645244122E-1,-1.074155331E0,1.313748294E0
4.965460600E-1,-5.683827400E-1,5.628843307E-1,-1.115092278E0,1.372344161E0
5.015310600E-1,-6.368992329E-1,5.495033264E-1,-1.140975952E0,1.417540356E0
5.065162160E-1,-7.470331192E-1,5.435099602E-1,-1.142469406E0,1.469250796E0
5.115012680E-1,-8.655081987E-1,5.351686478E-1,-1.155201435E0,1.539480523E0
5.164862160E-1,-9.833058119E-1,5.433685780E-1,-1.164658070E0,1.618199045E0
5.214712680E-1,-1.053084731E0,5.463931561E-1,-1.208682060E0,1.693648504E0
5.264625180E-1,-1.110843539E0,5.490443707E-1,-1.346127987E0,1.829612977E0
5.314478830E-1,-1.170663476E0,5.158374310E-1,-1.431619167E0,1.919915277E0
5.364331430E-1,-1.232320666E0,4.259121418E-1,-1.584249496E0,2.051794786E0
5.414184550E-1,-1.278971076E0,3.649826050E-1,-1.741751671E0,2.191501357E0
5.464152780E-1,-1.313057780E0,2.783441544E-1,-1.873350143E0,2.304568715E0
5.514012160E-1,-1.341755509E0,2.016592026E-1,-2.059860229E0,2.466576260E0
5.563871010E-1,-1.388818026E0,1.443073750E-1,-2.217796803E0,2.620737069E0
5.613729870E-1,-1.437610149E0,7.983183861E-2,-2.363937378E0,2.767904621E0
5.663447580E-1,-1.483559847E0,1.045942307E-3,-2.564665318E0,2.962846453E0
5.713299140E-1,-1.529488325E0,-3.962969780E-2,-2.769577026E0,3.164089435E0
5.763151220E-1,-1.580537081E0,-9.704089165E-2,-2.980890274E0,3.375384604E0
5.813003300E-1,-1.616132736E0,-1.375277042E-1,-3.193627357E0,3.581906558E0
5.862862680E-1,-1.682597876E0,-1.606357098E-1,-3.407583237E0,3.803756427E0
5.912714760E-1,-1.756779909E0,-1.682474613E-1,-3.651086807E0,4.055245705E0
5.962566850E-1,-1.846280575E0,-1.835808754E-1,-3.881114960E0,4.301802788E0
6.012419450E-1,-1.910516739E0,-2.462399006E-1,-4.088463783E0,4.519540287E0
6.062419450E-1,-1.961234808E0,-3.363852501E-1,-4.285344124E0,4.724803834E0
6.112279350E-1,-1.966907501E0,-4.201092720E-1,-4.415227890E0,4.851747545E0
6.162138720E-1,-1.944371462E0,-5.681781769E-1,-4.530990601E0,4.963192787E0
6.211998620E-1,-1.943096876E0,-7.939267159E-1,-4.609208584E0,5.064656836E0
6.261732990E-1,-1.931082606E0,-1.006292701E0,-4.605417252E0,5.094268651E0
6.311586640E-1,-1.917321801E0,-1.207734466E0,-4.570254803E0,5.101173825E0
6.361440280E-1,-1.898474574E0,-1.441534758E0,-4.482717514E0,5.077103946E0
6.411293410E-1,-1.935716987E0,-1.684142113E0,-4.314711094E0,5.019966806E0
6.461068410E-1,-1.985282540E0,-1.912004590E0,-4.119175911E0,4.956280713E0
6.510917890E-1,-1.980685592E0,-2.180413246E0,-3.922083378E0,4.905105030E0
6.560767370E-1,-2.033739567E0,-2.461008787E0,-3.666272402E0,4.861503286E0
6.610616850E-1,-2.136904001E0,-2.604659557E0,-3.484837770E0,4.847133628E0
6.660455910E-1,-2.208993435E0,-2.646173239E0,-3.393548727E0,4.837153891E0
6.710304870E-1,-2.294824123E0,-2.650595188E0,-3.422717333E0,4.899680250E0
6.760153830E-1,-2.417322159E0,-2.632410288E0,-3.505247116E0,5.005975198E0
6.810002780E-1,-2.456954718E0,-2.591409206E0,-3.603113174E0,5.072913631E0
6.859855390E-1,-2.399436235E0,-2.589303017E0,-3.723807335E0,5.131132957E0
6.909704350E-1,-2.236134768E0,-2.660910130E0,-3.836354256E0,5.176712798E0
6.959553300E-1,-2.018420219E0,-2.764876127E0,-3.940448284E0,5.219740689E0
7.009402780E-1,-1.780494690E0,-2.909715414E0,-4.133284569E0,5.359164716E0
7.059292890E-1,-1.508513451E0,-3.054191589E0,-4.304678917E0,5.489440743E0
7.109144450E-1,-1.259151697E0,-3.200684071E0,-4.457365036E0,5.630092768E0
7.158995490E-1,-1.050799608E0,-3.315649271E0,-4.537011623E0,5.716833422E0
7.208847050E-1,-9.182331562E-1,-3.444438457E0,-4.475473404E0,5.721640552E0
7.258640800E-1,-8.370466232E-1,-3.572765827E0,-4.311667919E0,5.661782665E0
7.308489240E-1,-7.671751976E-1,-3.664561749E0,-4.007621765E0,5.484396303E0
7.358337160E-1,-7.116050720E-1,-3.815085173E0,-3.582503080E0,5.281627114E0
7.408186120E-1,-6.138935089E-1,-3.933601856E0,-3.128876209E0,5.063591130E0
7.457988200E-1,-4.792881012E-1,-4.051762581E0,-2.610565186E0,4.843712180E0
7.507834550E-1,-3.223805428E-1,-4.193970680E0,-2.089178324E0,4.696592951E0
7.557680390E-1,-1.379771233E-1,-4.394282818E0,-1.540914059E0,4.658666688E0
7.607526740E-1,2.413463593E-2,-4.598590851E0,-1.003781319E0,4.706930765E0
7.657220490E-1,1.981267929E-1,-4.836622715E0,-4.518418312E-1,4.861721357E0
7.707059030E-1,3.885235786E-1,-5.046580315E0,3.493309021E-3,5.061515153E0
7.756897580E-1,5.698742867E-1,-5.227361679E0,3.028540611E-1,5.267047314E0
7.806736120E-1,7.309179306E-1,-5.394040108E0,5.989642143E-1,5.476190997E0
7.856816850E-1,8.838324547E-1,-5.525333881E0,7.656807899E-1,5.647720016E0
7.906667370E-1,1.010795593E0,-5.570517540E0,8.666014671E-1,5.727422762E0
7.956517890E-1,1.090385914E0,-5.620062828E0,8.760714531E-1,5.791506611E0
8.006367890E-1,1.113550663E0,-5.659132004E0,7.563786507E-1,5.817033503E0
8.056246530E-1,1.161366463E0,-5.658604145E0,5.751428604E-1,5.805115179E0
8.106097580E-1,1.226842403E0,-5.610945225E0,3.205323219E-1,5.752442053E0
8.155950180E-1,1.255158424E0,-5.591729641E0,1.073708534E-1,5.731875046E0
8.205801740E-1,1.358362198E0,-5.599782944E0,1.657724380E-2,5.762203718E0
8.255470490E-1,1.505205154E0,-5.641735554E0,-5.725097656E-2,5.839357866E0
8.305313200E-1,1.721472740E0,-5.692624092E0,-8.252382278E-2,5.947793509E0
8.355155910E-1,1.981135845E0,-5.778862953E0,1.593017578E-2,6.109043300E0
8.404998620E-1,2.215305328E0,-5.874395370E0,1.797978878E-1,6.280798193E0
8.454933510E-1,2.438687325E0,-5.922179222E0,3.204107285E-1,6.412648879E0
8.504780910E-1,2.706455708E0,-6.006623268E0,5.011920929E-1,6.607239900E0
8.554628300E-1,2.920984745E0,-6.091836452E0,6.597440243E-1,6.788069344E0
8.604475700E-1,3.154094696E0,-6.190094948E0,7.886369228E-1,6.991962315E0
8.654213720E-1,3.403471947E0,-6.294826031E0,8.990588188E-1,7.212264749E0
8.704055390E-1,3.619044781E0,-6.379389763E0,9.770932198E-1,7.399243882E0
8.753897580E-1,3.879463673E0,-6.513560295E0,1.027187109E0,7.650609091E0
8.803739240E-1,4.162942886E0,-6.625890732E0,1.082629681E0,7.899658758E0
8.853706430E-1,4.423844337E0,-6.728343964E0,1.158224106E0,8.135262399E0
8.903554870E-1,4.609673023E0,-6.902536392E0,1.182188272E0,8.384012353E0
8.953402780E-1,4.756334782E0,-7.026530266E0,1.153048038E0,8.562964902E0
9.003250700E-1,4.866353512E0,-7.133928299E0,1.180749655E0,8.715991006E0
9.053084550E-1,5.006523609E0,-7.227064610E0,1.239102840E0,8.878688944E0
9.102931950E-1,5.145617485E0,-7.270147324E0,1.328537464E0,9.005411329E0
9.152779350E-1,5.319356918E0,-7.332324982E0,1.411178112E0,9.167877144E0
9.202627260E-1,5.456101894E0,-7.375480175E0,1.489610434E0,9.294390509E0
9.252422050E-1,5.553482533E0,-7.345201015E0,1.638055563E0,9.352880424E0
9.302267370E-1,5.685661793E0,-7.320122719E0,1.773408294E0,9.436944612E0
9.352112160E-1,5.828837872E0,-7.264451504E0,1.886126161E0,9.502898425E0
9.401956950E-1,5.966444492E0,-7.173589706E0,2.019157887E0,9.546509714E0
9.451816330E-1,6.146233559E0,-7.064519405E0,2.191198111E0,9.616910655E0
9.501661640E-1,6.365555286E0,-6.959025383E0,2.377988577E0,9.726415478E0
9.551506950E-1,6.648072720E0,-6.814332962E0,2.553013325E0,9.856463952E0
9.601352780E-1,6.943338871E0,-6.652361393E0,2.739854336E0,9.998533321E0
9.651172050E-1,7.189080238E0,-6.523646355E0,2.950067520E0,1.014611920E1
9.701016330E-1,7.440189838E0,-6.316318512E0,3.192694426E0,1.026867090E1
9.750860600E-1,7.724721432E0,-6.109911919E0,3.455246449E0,1.043748403E1
9.800704350E-1,8.006464958E0,-5.866599083E0,3.734688997E0,1.060511046E1
9.850526220E-1,8.234960556E0,-5.615518093E0,4.011250973E0,1.074424279E1
9.900369450E-1,8.390964508E0,-5.323652744E0,4.305864334E0,1.083005224E1
9.950212160E-1,8.445806503E0,-4.979526520E0,4.625139713E0,1.084062956E1
1.000005591E0,8.452135086E0,-4.583409786E0,4.904047966E0,1.079332753E1
1.005027310E0,8.441571236E0,-4.227784634E0,5.209805965E0,1.078315195E1
1.010013455E0,8.403015137E0,-3.870793819E0,5.437752724E0,1.073139613E1
1.014999601E0,8.353788376E0,-3.485445976E0,5.631271839E0,1.066045667E1
1.019985799E0,8.315064430E0,-3.076594830E0,5.725493431E0,1.055400432E1
1.025024601E0,8.304407120E0,-2.679041862E0,5.761745453E0,1.045648859E1
1.030013455E0,8.340616226E0,-2.265804291E0,5.758931160E0,1.038580937E1
1.035002258E0,8.357366562E0,-1.898044109E0,5.700715065E0,1.029302189E1
1.039991112E0,8.378152847E0,-1.573134422E0,5.627043724E0,1.021429479E1
1.044896112E0,8.374553680E0,-1.301613331E0,5.531971931E0,1.012077369E1
1.049870487E0,8.347049713E0,-9.880809784E-1,5.388887882E0,9.984470719E0
1.054854653E0,8.310672760E0,-6.242189407E-1,5.240347862E0,9.844702978E0
1.059838820E0,8.250645638E0,-2.675762177E-1,4.988928318E0,9.645421516E0
1.064821008E0,8.173763275E0,1.199026108E-1,4.697440147E0,9.428187877E0
1.069805070E0,8.079943657E0,4.476227760E-1,4.463929653E0,9.241889612E0
1.074789133E0,8.002244949E0,7.420101166E-1,4.245514393E0,9.089053620E0
1.079773247E0,7.892668724E0,1.031790257E0,4.006794453E0,8.911409120E0
1.084759549E0,7.693930626E0,1.264535904E0,3.762513161E0,8.657489521E0
1.089743716E0,7.442036629E0,1.542978287E0,3.532179832E0,8.380989533E0
1.094727883E0,7.194426060E0,1.814569473E0,3.273289442E0,8.109676472E0
1.099712049E0,6.905794144E0,2.091320515E0,2.979331970E0,7.806409753E0
1.104689549E0,6.602544308E0,2.349450111E0,2.717882872E0,7.516674429E0
1.109673351E0,6.304116249E0,2.613111019E0,2.446451664E0,7.249507337E0
1.114657205E0,6.067641735E0,2.817982197E0,2.156359673E0,7.029024607E0
1.119641060E0,5.921298027E0,3.031042099E0,1.872005582E0,6.910382871E0
1.124639080E0,5.757343769E0,3.185539246E0,1.577186227E0,6.766253317E0
1.129623664E0,5.589620590E0,3.274361610E0,1.291826248E0,6.605612565E0
1.134608195E0,5.389627457E0,3.350354195E0,9.878842235E-1,6.422528520E0
1.139592726E0,5.183675766E0,3.382622242E0,7.062327862E-1,6.229879006E0
1.144578820E0,4.945611000E0,3.442943096E0,4.877847731E-1,6.045730668E0
1.149563403E0,4.656602859E0,3.466969967E0,2.733926773E-1,5.811933800E0
1.154548039E0,4.326425552E0,3.500210762E0,1.062490344E-1,5.566032905E0
1.159532674E0,4.019908428E0,3.542860031E0,-5.861538649E-2,5.358633850E0
1.164512466E0,3.685031891E0,3.580937386E0,-1.897769570E-1,5.141846739E0
1.169496841E0,3.369869232E0,3.636133671E0,-3.060899377E-1,4.967008935E0
1.174481216E0,3.072272778E0,3.691924572E0,-4.526347220E-1,4.824318113E0
1.179465591E0,2.814057350E0,3.717628002E0,-5.623186231E-1,4.696368700E0
1.184457153E0,2.576299667E0,3.687387466E0,-6.493917108E-1,4.544871384E0
1.189441893E0,2.339992523E0,3.656403065E0,-6.827934384E-1,4.394434578E0
1.194426633E0,2.174475670E0,3.572396278E0,-7.222117186E-1,4.244048701E0
1.199411372E0,2.022672653E0,3.454952717E0,-7.913689017E-1,4.080951810E0
1.204386476E0,1.884726524E0,3.330578804E0,-8.089655638E-1,3.911441489E0
1.209370747E0,1.801311493E0,3.189890385E0,-8.039578795E-1,3.750529567E0
1.214355018E0,1.729435921E0,3.025902748E0,-7.358742356E-1,3.562098670E0
1.219339237E0,1.673964977E0,2.857883930E0,-6.453998089E-1,3.374344413E0
1.224330591E0,1.694715023E0,2.681215286E0,-5.377465487E-1,3.217164244E0
1.229315174E0,1.700909615E0,2.479311943E0,-3.725292385E-1,3.029663226E0
1.234299810E0,1.728263855E0,2.302254677E0,-1.763535738E-1,2.884158999E0
1.239284393E0,1.814857006E0,2.183249474E0,2.315044403E-3,2.839064912E0
1.244272518E0,1.867451668E0,2.050480843E0,2.014139891E-1,2.780722031E0
1.249257310E0,1.924283504E0,1.939676762E0,3.918105960E-1,2.760204429E0
1.254242101E0,1.961398125E0,1.819647789E0,6.161144972E-1,2.745505009E0
1.259226893E0,2.000320435E0,1.707072258E0,8.762868047E-1,2.771868702E0
1.264218039E0,2.036299229E0,1.623353004E0,1.105134368E0,2.828977111E0
1.269203143E0,2.073975086E0,1.570626736E0,1.304805636E0,2.910456794E0
1.274188247E0,2.104016304E0,1.536941528E0,1.501351118E0,3.007179584E0
1.279173403E0,2.169187069E0,1.502973080E0,1.668003559E0,3.121944345E0
1.284144445E0,2.257365704E0,1.451941013E0,1.787641287E0,3.224824646E0
1.289128820E0,2.330307007E0,1.419661045E0,1.943735361E0,3.350205275E0
1.294113247E0,2.421353340E0,1.389238358E0,2.102144241E0,3.494559432E0
1.299097622E0,2.456250668E0,1.365221977E0,2.238584280E0,3.592806419E0
1.304085122E0,2.511482239E0,1.297416687E0,2.371663809E0,3.689935273E0
1.309069653E0,2.496383190E0,1.286100388E0,2.526987076E0,3.777783334E0
1.314054185E0,2.425419807E0,1.266508579E0,2.606109381E0,3.778691748E0
1.319038768E0,2.370493412E0,1.272076130E0,2.706603050E0,3.816165191E0
1.324030747E0,2.286162376E0,1.290656567E0,2.725409031E0,3.784202316E0
1.329015643E0,2.141670227E0,1.293591976E0,2.707881927E0,3.686835512E0
1.334000591E0,2.001875401E0,1.326348305E0,2.675578833E0,3.595194993E0
1.338985539E0,1.897917747E0,1.348309994E0,2.545091629E0,3.449278623E0
1.343964393E0,1.810789108E0,1.390599728E0,2.362205982E0,3.285230875E0
1.348949028E0,1.780955315E0,1.405374527E0,2.172619104E0,3.141202503E0
1.353933612E0,1.720009804E0,1.325992584E0,1.957903504E0,2.924051332E0
1.358918247E0,1.692369461E0,1.262448311E0,1.623327494E0,2.663284116E0
1.363903560E0,1.678691387E0,1.159735680E0,1.289216638E0,2.413518419E0
1.368888247E0,1.678894997E0,1.065650463E0,9.439053535E-1,2.201194366E0
1.373872883E0,1.662011147E0,9.706573486E-1,5.519418716E-1,2.002272851E0
1.378857570E0,1.630374432E0,8.507938385E-1,1.518762112E-1,1.845274323E0
1.383846789E0,1.579261780E0,7.562031746E-1,-2.441569567E-1,1.767915052E0
1.388831633E0,1.484956264E0,6.558260918E-1,-5.786181092E-1,1.723369341E0
1.393816528E0,1.402682781E0,5.308008194E-1,-9.060854912E-1,1.752215572E0
1.398801476E0,1.327561378E0,4.408612251E-1,-1.192702413E0,1.838291837E0
1.403784080E0,1.219158649E0,3.335776329E-1,-1.526414275E0,1.981807859E0
1.408768872E0,1.089718342E0,2.092533112E-1,-1.773026824E0,2.091625476E0
1.413753612E0,9.107732773E-1,1.158285141E-1,-2.063591242E0,2.258613075E0
1.418738403E0,7.424163818E-1,1.056146622E-2,-2.302242756E0,2.419011231E0
1.423716893E0,5.801510811E-1,-3.217935562E-2,-2.450632572E0,2.518573166E0
1.428701372E0,4.168148041E-1,-7.690191269E-2,-2.594686508E0,2.629077131E0
1.433685799E0,3.290152550E-1,-1.303510666E-1,-2.712449074E0,2.735438249E0
1.438670278E0,2.165174484E-1,-2.112493515E-1,-2.801354170E0,2.817639310E0
1.443665747E0,1.605525017E-1,-2.526140213E-1,-2.844862938E0,2.860565693E0
1.448650695E0,1.824231148E-1,-3.116273880E-1,-2.868970871E0,2.891605727E0
1.453635747E0,2.384839058E-1,-3.645296097E-1,-2.937716007E0,2.969836990E0
1.458620747E0,2.494940758E-1,-3.114476204E-1,-3.043907881E0,3.069954739E0
1.463602935E0,2.700061798E-1,-2.844262123E-1,-3.101881742E0,3.126575115E0
1.468587778E0,2.426314354E-1,-2.978439331E-1,-3.181376219E0,3.204486803E0
1.473572622E0,2.224712372E-1,-2.799777985E-1,-3.253940105E0,3.273531309E0
1.478557518E0,1.762738228E-1,-2.594847679E-1,-3.360476017E0,3.375085757E0
1.483547935E0,1.087989807E-1,-2.269449234E-1,-3.434226036E0,3.443435738E0
1.488533039E0,1.045179367E-2,-1.515684128E-1,-3.537630081E0,3.540890963E0
1.493518195E0,-1.303524971E-1,-1.073246002E-1,-3.642229080E0,3.646140839E0
1.498503351E0,-3.014807701E-1,1.091146469E-2,-3.686089039E0,3.698413459E0
1.503480955E0,-4.836888313E-1,1.386036873E-1,-3.652496338E0,3.686990014E0
1.508465747E0,-6.818575859E-1,3.091020584E-1,-3.598703384E0,3.675750250E0
1.513450487E0,-9.077944756E-1,4.533405304E-1,-3.545698166E0,3.688032528E0
1.518435226E0,-1.087355137E0,6.121606827E-1,-3.531419754E0,3.745398160E0
1.523424497E0,-1.268392563E0,7.785348892E-1,-3.557768345E0,3.856507729E0
1.528409497E0,-1.419935703E0,8.476510048E-1,-3.571506500E0,3.935783062E0
1.533394445E0,-1.549067020E0,8.677530289E-1,-3.601334095E0,4.015247342E0
1.538379445E0,-1.607905865E0,8.679823875E-1,-3.623095036E0,4.057779236E0
1.543362935E0,-1.589412689E0,8.486866951E-1,-3.657905579E0,4.077594269E0
1.548347830E0,-1.532052994E0,7.815060616E-1,-3.590596199E0,3.981245931E0
1.553332778E0,-1.421768665E0,6.569814682E-1,-3.459590912E0,3.797607150E0
1.558317674E0,-1.318408012E0,5.469260216E-1,-3.312687635E0,3.607107862E0
1.563305174E0,-1.210061550E0,4.537243843E-1,-3.128180981E0,3.384616820E0
1.568290226E0,-1.089650631E0,3.055610657E-1,-2.896908045E0,3.110109690E0
1.573275278E0,-9.975814819E-1,2.029099464E-1,-2.628841877E0,2.819069150E0
1.578260278E0,-8.906478882E-1,5.972957611E-2,-2.333961010E0,2.498838786E0
1.583240539E0,-7.760519981E-1,-2.143955231E-2,-2.079676867E0,2.219858605E0
1.588225330E0,-6.251692772E-1,-7.667732239E-2,-1.749086976E0,1.859037731E0
1.593210174E0,-4.667239189E-1,-1.205163002E-1,-1.414397240E0,1.494280746E0
1.598194914E0,-3.269557953E-1,-1.507353783E-1,-1.078388929E0,1.136901020E0
1.603181008E0,-1.605505943E-1,-1.748571396E-1,-7.560039759E-1,7.923973272E-1
1.608165903E0,-2.721214294E-2,-1.907029152E-1,-4.908007383E-1,5.272508581E-1
1.613150747E0,1.137466431E-1,-1.626462936E-1,-2.472448349E-1,3.170522418E-1
1.618135643E0,2.789921761E-1,-1.459641457E-1,-4.509687424E-2,3.180815842E-1
1.623125383E0,4.302248955E-1,-1.098618507E-1,1.006739140E-1,4.553002568E-1
1.628110539E0,5.697555542E-1,-3.798437119E-2,2.301884890E-1,6.156711334E-1
1.633095643E0,7.000298500E-1,3.607225418E-2,3.120774031E-1,7.672908861E-1
1.638080747E0,8.472547531E-1,1.002306938E-1,3.771965504E-1,9.328258392E-1
1.643050278E0,9.371423721E-1,1.852598190E-1,4.110199213E-1,1.039949230E0
1.648034601E0,1.022202969E0,2.909851074E-1,4.233143330E-1,1.144013228E0
1.653018924E0,1.109647274E0,3.624382019E-1,3.709307909E-1,1.224854348E0
1.658003247E0,1.173038960E0,4.378046989E-1,3.974167109E-1,1.313633662E0
1.662996580E0,1.281618595E0,4.407134056E-1,3.809740543E-1,1.407805299E0
1.667981372E0,1.411250114E0,3.736877441E-1,3.242086172E-1,1.495453324E0
1.672966112E0,1.571359158E0,2.155914307E-1,2.422350645E-1,1.604470970E0
1.677950903E0,1.737785339E0,-2.377939224E-2,2.001820803E-1,1.749438827E0
1.682935383E0,1.869719982E0,-2.893333435E-1,1.698905230E-1,1.899586635E0
1.687920174E0,1.976742744E0,-5.380592346E-1,1.467299461E-1,2.053910732E0
1.692904914E0,2.068430424E0,-7.699975967E-1,1.786653996E-1,2.214322028E0
1.697889653E0,2.149492264E0,-9.565653801E-1,1.919633150E-1,2.360547443E0
1.702877153E0,2.205747604E0,-1.126382351E0,2.442238331E-1,2.488715527E0
1.707862049E0,2.232512474E0,-1.298521519E0,2.926405668E-1,2.599213070E0
1.712846945E0,2.289598465E0,-1.470480919E0,3.542313576E-1,2.744094590E0
1.717831841E0,2.343629837E0,-1.596807003E0,4.241145849E-1,2.867449494E0
1.722818976E0,2.385234356E0,-1.703784943E0,4.973241091E-1,2.973139306E0
1.727803976E0,2.469406605E0,-1.800970078E0,5.858128071E-1,3.112015239E0
1.732788976E0,2.510091782E0,-1.883648872E0,6.369242668E-1,3.202243955E0
1.737773976E0,2.548128605E0,-2.009086609E0,6.887516975E-1,3.317192682E0
1.742749601E0,2.614672184E0,-2.076878071E0,7.385447025E-1,3.419851083E0
1.747734133E0,2.654681206E0,-2.139793396E0,7.957558632E-1,3.501324817E0
1.752718664E0,2.701685905E0,-2.145303726E0,8.651399612E-1,3.556670066E0
1.757703247E0,2.753146648E0,-2.131940365E0,9.250339270E-1,3.602870238E0
1.762689914E0,2.756505489E0,-2.044938087E0,9.799938202E-1,3.569381204E0
1.767674549E0,2.742817879E0,-1.963435650E0,1.080037117E0,3.541837043E0
1.772659185E0,2.716891766E0,-1.832617760E0,1.186405301E0,3.485333020E0
1.777643768E0,2.650112629E0,-1.690845490E0,1.265545368E0,3.388755007E0
1.782627518E0,2.578223705E0,-1.528845310E0,1.386465311E0,3.302558329E0
1.787612101E0,2.472529888E0,-1.339642525E0,1.560615778E0,3.216141749E0
1.792596685E0,2.325912952E0,-1.111496449E0,1.715885639E0,3.096701300E0
1.797581268E0,2.150289059E0,-8.661952019E-1,1.914100409E0,3.006296316E0
1.802562466E0,1.972036362E0,-5.918436050E-1,2.083358288E0,2.929093379E0
1.807546893E0,1.757602215E0,-3.054614067E-1,2.278189659E0,2.893548054E0
1.812531320E0,1.547626019E0,-2.149629593E-2,2.464909554E0,2.910564806E0
1.817515747E0,1.306288242E0,2.599897385E-1,2.621728659E0,2.940653804E0
1.822507987E0,1.069492340E0,5.126914978E-1,2.738971233E0,2.984732795E0
1.827492830E0,8.444962502E-1,7.128443718E-1,2.849857807E0,3.056633857E0
1.832477622E0,6.408791542E-1,8.176665306E-1,2.885199547E0,3.066542201E0
1.837462414E0,4.896402359E-1,8.608822823E-1,2.900333405E0,3.064767483E0
1.842442935E0,3.787956238E-1,8.451910019E-1,2.824030876E0,2.972033705E0
1.847427518E0,2.913851738E-1,7.420001030E-1,2.709431648E0,2.824267928E0
1.852412101E0,1.985239983E-1,5.847835541E-1,2.573517799E0,2.646578441E0
1.857396685E0,1.287512779E-1,4.095225334E-1,2.355168104E0,2.393972096E0
1.862377987E0,2.237749100E-2,2.522487640E-1,2.148340702E0,2.163214729E0
1.867362414E0,-9.675550461E-2,6.514024734E-2,1.898775339E0,1.902354506E0
1.872346841E0,-2.285799980E-1,-6.798982620E-2,1.669314384E0,1.686262716E0
1.877331268E0,-3.658990860E-1,-1.734108925E-1,1.412812829E0,1.469691658E0
1.882318195E0,-4.965772629E-1,-2.914848328E-1,1.170365095E0,1.304341536E0
1.887302726E0,-6.896181107E-1,-3.525915146E-1,9.516938925E-1,1.227035118E0
1.892287258E0,-8.611388206E-1,-4.353947639E-1,7.667074203E-1,1.232464579E0
1.897271841E0,-9.896364212E-1,-5.037837029E-1,6.086694002E-1,1.266355678E0
1.902279601E0,-1.098936081E0,-5.886182785E-1,4.464926720E-1,1.324193224E0
1.907265330E0,-1.191090584E0,-6.367945671E-1,3.209687471E-1,1.388245308E0
1.912251008E0,-1.220870972E0,-7.177453041E-1,2.176519632E-1,1.432849130E0
1.917236737E0,-1.257557869E0,-7.954101562E-1,1.173133850E-1,1.492612321E0
1.922202935E0,-1.291481495E0,-8.314528465E-1,-8.713006973E-3,1.536005926E0
1.927187674E0,-1.315692902E0,-8.811817169E-1,-6.259787083E-2,1.584754720E0
1.932172414E0,-1.337111950E0,-9.275560379E-1,-8.052635193E-2,1.629329022E0
1.937157153E0,-1.360515594E0,-9.062504768E-1,-1.323788166E-1,1.640066084E0
1.942142726E0,-1.376264572E0,-9.224724770E-1,-1.562538147E-1,1.664173939E0
1.947127518E0,-1.422442436E0,-9.425354004E-1,-1.953119040E-1,1.717516290E0
1.952112310E0,-1.434390545E0,-9.283194542E-1,-2.288767099E-1,1.723843900E0
1.957097101E0,-1.479029655E0,-8.751692772E-1,-1.784702539E-1,1.727802540E0
1.962079705E0,-1.532398701E0,-8.358325958E-1,-1.307132244E-1,1.750413623E0
1.967064341E0,-1.551459789E0,-8.103156090E-1,-1.122291088E-1,1.753919678E0
1.972048976E0,-1.641392231E0,-7.652058601E-1,-3.714430332E-2,1.811377422E0
1.977033664E0,-1.713608265E0,-7.339606285E-1,5.119979382E-2,1.864878792E0
1.982012830E0,-1.772845745E0,-6.424674988E-1,4.978632927E-2,1.886325847E0
1.986997205E0,-1.862243176E0,-6.319570541E-1,1.282382011E-1,1.970726871E0
1.991981580E0,-1.981598377E0,-6.256418228E-1,1.835871935E-1,2.086112192E0
1.996966008E0,-2.063965321E0,-5.852384567E-1,2.279623747E-1,2.157411352E0
2.001957466E0,-2.161997795E0,-5.800032616E-1,2.497873306E-1,2.252339220E0
2.006942205E0,-2.223124504E0,-5.405740738E-1,2.921373844E-1,2.306479382E0
2.011926945E0,-2.261751652E0,-4.669504166E-1,3.145360947E-1,2.330771585E0
2.016911685E0,-2.299580574E0,-4.762921333E-1,2.936286926E-1,2.366673366E0
2.021887778E0,-2.305623531E0,-4.919843674E-1,2.464119196E-1,2.370372823E0
2.026872049E0,-2.291933060E0,-4.806065559E-1,2.302769423E-1,2.353076132E0
2.031856372E0,-2.299237728E0,-5.472955704E-1,2.001600266E-1,2.371938154E0
2.036840747E0,-2.313158035E0,-5.867543221E-1,1.322693825E-1,2.390078643E0
2.041833716E0,-2.316893578E0,-6.132783890E-1,7.446086407E-2,2.397842917E0
2.046818455E0,-2.272246361E0,-6.626572609E-1,4.595649242E-2,2.367346652E0
2.051803195E0,-2.241602898E0,-6.801118851E-1,1.811206341E-2,2.342576311E0
2.056787987E0,-2.236946106E0,-7.087750435E-1,-6.546139717E-3,2.346557648E0
2.061784237E0,-2.210486412E0,-7.271418571E-1,-2.312922478E-2,2.327127074E0
2.066769601E0,-2.162375450E0,-7.233877182E-1,-4.343819618E-2,2.280579807E0
2.071754914E0,-2.114214897E0,-7.741003036E-1,-9.624230862E-2,2.253530229E0
2.076740226E0,-2.118517876E0,-7.883725166E-1,-1.218255758E-1,2.263733793E0
2.081716164E0,-2.122529507E0,-8.067955971E-1,-9.883177280E-2,2.272843673E0
2.086701008E0,-2.150306225E0,-8.487091064E-1,-5.602574348E-2,2.312414948E0
2.091685903E0,-2.161098957E0,-8.613996506E-1,-3.172135353E-2,2.326663771E0
2.096670747E0,-2.195506096E0,-8.688302040E-1,5.747330189E-2,2.361867084E0
2.101655330E0,-2.303648949E0,-8.495683670E-1,1.157906055E-1,2.458042382E0
2.106640174E0,-2.339601517E0,-8.131570816E-1,2.077825069E-1,2.485585095E0
2.111625018E0,-2.406164646E0,-8.001089096E-1,3.023808002E-1,2.553671224E0
2.116609862E0,-2.479454517E0,-7.746500969E-1,3.924083710E-1,2.627120440E0
2.121598091E0,-2.549829006E0,-7.772793770E-1,4.732007980E-1,2.707343751E0
2.126583039E0,-2.593312740E0,-7.671594620E-1,5.257648230E-1,2.755037796E0
2.131568091E0,-2.638622284E0,-7.873291969E-1,5.739376545E-1,2.812760077E0
2.136553091E0,-2.652282715E0,-7.684288025E-1,6.319683790E-1,2.832749628E0
2.141538820E0,-2.643868923E0,-7.391490936E-1,6.711250544E-1,2.826091489E0
2.146523872E0,-2.665947437E0,-7.328643799E-1,6.820605993E-1,2.847731132E0
2.151508872E0,-2.627731323E0,-6.922655106E-1,6.935105324E-1,2.804489312E0
2.156493924E0,-2.586759567E0,-6.319108009E-1,6.671229601E-1,2.745121011E0
2.161479966E0,-2.528667927E0,-5.780806541E-1,6.554614305E-1,2.675437985E0
2.166465070E0,-2.463120461E0,-5.212621689E-1,6.133126020E-1,2.591298709E0
2.171450174E0,-2.437948704E0,-4.782619476E-1,5.741438866E-1,2.549895993E0
2.176435278E0,-2.381342888E0,-4.561872482E-1,5.281730890E-1,2.481505101E0
2.181415643E0,-2.310173988E0,-4.717683792E-1,5.019242764E-1,2.410683977E0
2.186400539E0,-2.188770771E0,-4.725127220E-1,4.238653183E-1,2.278957562E0
2.191385330E0,-2.050626278E0,-4.655265808E-1,3.515006304E-1,2.131979320E0
2.196370226E0,-1.883941174E0,-4.939918518E-1,2.155143023E-1,1.959517469E0
2.201425747E0,-1.707986355E0,-6.176033020E-1,6.421065331E-2,1.817353635E0
2.206414185E0,-1.517962456E0,-7.454900742E-1,-1.222121716E-1,1.695553385E0
2.211402570E0,-1.306861401E0,-8.921036720E-1,-2.717363238E-1,1.605483202E0
2.216390955E0,-1.113012791E0,-1.076612473E0,-4.823819399E-1,1.621907588E0
2.221295122E0,-8.909468651E-1,-1.289439201E0,-7.067835927E-1,1.719297187E0
2.226279289E0,-7.196440697E-1,-1.415848732E0,-9.322352409E-1,1.841623676E0
2.231263455E0,-5.512166023E-1,-1.563670635E0,-1.082888484E0,1.980291157E0
2.236247674E0,-3.785414696E-1,-1.778364182E0,-1.292928338E0,2.231039330E0
2.241235278E0,-2.302389145E-1,-2.007160664E0,-1.490583420E0,2.510685727E0
2.246219653E0,-7.538652420E-2,-2.178598404E0,-1.601633310E0,2.705032975E0
2.251204028E0,4.048299789E-2,-2.352749348E0,-1.681399107E0,2.892087710E0
2.256188351E0,1.436457634E-1,-2.570333004E0,-1.715539098E0,3.093593421E0
2.261169497E0,1.840095520E-1,-2.728546619E0,-1.680703163E0,3.209920450E0
2.266153664E0,1.568560600E-1,-2.873044968E0,-1.641664505E0,3.312710908E0
2.271137883E0,8.155441284E-2,-2.991856575E0,-1.589500904E0,3.388859692E0
2.276122049E0,-5.582237244E-2,-3.103794098E0,-1.445939183E0,3.424528298E0
2.281110383E0,-1.450443268E-1,-3.251640797E0,-1.252324462E0,3.487480794E0
2.286094758E0,-2.744188309E-1,-3.363484859E0,-1.002443075E0,3.520401712E0
2.291079133E0,-4.031119347E-1,-3.467915535E0,-7.040079236E-1,3.561539631E0
2.296063560E0,-4.761037827E-1,-3.512330055E0,-3.839042187E-1,3.565181577E0
2.301049705E0,-5.149478912E-1,-3.506408215E0,-9.789937735E-2,3.545370811E0
2.306034185E0,-4.407773018E-1,-3.464516640E0,1.057007313E-1,3.494042476E0
2.311018612E0,-3.424205780E-1,-3.513680458E0,3.221884966E-1,3.544997552E0
2.316003143E0,-2.559809685E-1,-3.548946857E0,5.011668205E-1,3.593287942E0
2.320991893E0,-1.911778450E-1,-3.608943462E0,5.658450723E-1,3.658032604E0
2.325976580E0,-1.672720909E-1,-3.751293182E0,6.216291189E-1,3.806127068E0
2.330961268E0,-1.220827103E-1,-3.873161793E0,6.258597374E-1,3.925300864E0
2.335945955E0,-1.012768745E-1,-4.015446186E0,6.084634066E-1,4.062547575E0
2.340917101E0,-1.216220856E-1,-4.072985649E0,5.541539788E-1,4.112309651E0
2.345901060E0,-2.214345932E-1,-4.072433949E0,4.709712267E-1,4.105553001E0
2.350885070E0,-4.531288147E-1,-3.970683575E0,3.225407600E-1,4.009449627E0
2.355869080E0,-7.492752075E-1,-3.839102268E0,9.325325489E-2,3.912648174E0
2.360858143E0,-1.085505009E0,-3.708181381E0,-1.944815516E-1,3.868688842E0
2.365842466E0,-1.427953243E0,-3.524724483E0,-4.681798220E-1,3.831700079E0
2.370826737E0,-1.735735416E0,-3.348066330E0,-7.154960632E-1,3.838523180E0
2.375811008E0,-2.049119473E0,-3.172589779E0,-9.189745784E-1,3.886995085E0
2.380805955E0,-2.353592396E0,-2.990700722E0,-1.073380113E0,3.954217096E0
2.385790747E0,-2.632202625E0,-2.859118938E0,-1.194648147E0,4.065739288E0
2.390775591E0,-2.839365959E0,-2.717500687E0,-1.270493388E0,4.130491797E0
2.395760383E0,-3.037073612E0,-2.579575539E0,-1.326549053E0,4.199733143E0
2.400860383E0,-3.189298153E0,-2.444986820E0,-1.348469138E0,4.238862144E0
2.405960383E0,-3.329463005E0,-2.265652180E0,-1.307193160E0,4.234059241E0
2.410996164E0,-3.402656078E0,-2.070376396E0,-1.186150551E0,4.155897008E0
2.415991997E0,-3.413733959E0,-1.885546684E0,-1.033756733E0,4.034540721E0
2.420987830E0,-3.393741608E0,-1.711153984E0,-8.458635807E-1,3.893714840E0
2.425892830E0,-3.288064480E0,-1.521533489E0,-5.611733794E-1,3.666244365E0
2.430797830E0,-3.130247593E0,-1.362260342E0,-2.642097473E-1,3.424034174E0
2.435702830E0,-3.004096031E0,-1.181091785E0,-1.789867878E-2,3.227985615E0
2.440615487E0,-2.830880165E0,-1.011972427E0,2.585909367E-1,3.017422737E0
2.445599758E0,-2.663108349E0,-8.453140259E-1,5.169566870E-1,2.841469003E0
2.450580591E0,-2.484534740E0,-6.366400719E-1,7.730357647E-1,2.678769820E0
2.455561424E0,-2.309747219E0,-4.486670494E-1,9.137887955E-1,2.524132386E0
2.460542205E0,-2.122129917E0,-2.936205864E-1,1.096493602E0,2.406646350E0
2.465541685E0,-1.993386269E0,-1.309685707E-1,1.236813188E0,2.349563458E0
2.470523455E0,-1.844863892E0,5.168914795E-4,1.317502260E0,2.267010201E0
2.475505226E0,-1.722082138E0,9.601736069E-2,1.362566352E0,2.198038509E0
2.480486997E0,-1.586783886E0,1.698880196E-1,1.367181182E0,2.101411293E0
2.485478872E0,-1.453332901E0,2.269158363E-1,1.357557297E0,2.001656597E0
2.490461164E0,-1.324436665E0,2.596154213E-1,1.319548726E0,1.887522579E0
2.495443455E0,-1.183263302E0,2.969007492E-1,1.270334244E0,1.761252732E0
2.500425695E0,-1.034696102E0,3.483023643E-1,1.191241622E0,1.615848744E0
2.505425330E0,-9.050869942E-1,3.636136055E-1,1.113726616E0,1.480467594E0
2.510408455E0,-7.924060822E-1,3.903112411E-1,1.042915821E0,1.366720042E0
2.515391633E0,-7.084364891E-1,4.166669846E-1,9.553998709E-1,1.260270823E0
2.520374758E0,-6.196942329E-1,4.188232422E-1,8.539257050E-1,1.135175299E0
2.525361164E0,-5.141992569E-1,4.255890846E-1,7.745815516E-1,1.022498667E0
2.530344497E0,-3.826160431E-1,4.033718109E-1,7.105520964E-1,9.022129105E-1
2.535327778E0,-1.818771362E-1,3.667335510E-1,6.883461475E-1,8.008702822E-1
2.540311112E0,2.568864822E-2,3.084583282E-1,6.982879639E-1,7.638144587E-1
2.545301060E0,2.350010872E-1,2.641601562E-1,6.974637508E-1,7.819602182E-1
2.550284705E0,4.314742088E-1,1.905751228E-1,6.740387678E-1,8.226889636E-1
2.555268351E0,6.199030876E-1,1.140408516E-1,7.259634733E-1,9.614094437E-1
2.560251997E0,7.856736183E-1,2.466773987E-2,7.619309425E-1,1.094728411E0
2.565242101E0,9.671254158E-1,-3.449153900E-2,7.791703939E-1,1.242428162E0
2.570226112E0,1.097115517E0,-1.186628342E-1,7.703541517E-1,1.345804163E0
2.575210070E0,1.209078312E0,-1.443343163E-1,7.517470121E-1,1.431022826E0
2.580194028E0,1.310225487E0,-1.546201706E-1,7.422951460E-1,1.513803259E0
2.585181841E0,1.395787716E0,-1.496148109E-1,6.960060596E-1,1.566854293E0
2.590166060E0,1.496819019E0,-1.509180069E-1,6.125395298E-1,1.624330046E0
2.595150174E0,1.517805576E0,-1.775698662E-1,5.512946844E-1,1.624558603E0
2.600134341E0,1.530503273E0,-1.674604416E-1,4.690890312E-1,1.609511661E0
2.605109758E0,1.532391548E0,-1.613936424E-1,3.754632473E-1,1.585952211E0
2.610093508E0,1.552288532E0,-1.258144379E-1,2.940177917E-1,1.584889719E0
2.615077258E0,1.487481117E0,-5.593442917E-2,1.815277338E-1,1.499560286E0
2.620060955E0,1.378648281E0,4.812240601E-2,1.122694016E-1,1.384048867E0
2.625071633E0,1.252333641E0,1.960101128E-1,3.350484371E-2,1.268022905E0
2.630056685E0,1.096457958E0,3.660159111E-1,-4.750716686E-2,1.156911679E0
2.635041737E0,9.184966087E-1,5.296435356E-1,-9.978199005E-2,1.064948234E0
2.640026789E0,7.472963333E-1,6.583919525E-1,-1.517831683E-1,1.007457147E0
2.644996737E0,5.375576019E-1,8.145761490E-1,-1.914556623E-1,9.945640997E-1
2.649981060E0,2.942204475E-1,9.647855759E-1,-2.234756351E-1,1.033110952E0
2.654965330E0,8.915519714E-2,1.121127129E0,-2.810060382E-1,1.159240735E0
2.659949653E0,-8.961677551E-2,1.264564514E0,-3.349584937E-1,1.311240546E0
2.664934758E0,-2.300496101E-1,1.371421814E0,-3.657955527E-1,1.437889774E0
2.669919133E0,-3.728408813E-1,1.441814899E0,-3.780459762E-1,1.536476257E0
2.674903508E0,-4.916615486E-1,1.499770164E0,-4.289360642E-1,1.635551213E0
2.679887883E0,-6.153707504E-1,1.557206631E0,-4.749948382E-1,1.740457913E0
2.684878664E0,-7.245988846E-1,1.576154232E0,-5.039978623E-1,1.806466040E0
2.689863351E0,-8.075089455E-1,1.592539310E0,-5.657345057E-1,1.873047699E0
2.694847987E0,-8.975234032E-1,1.604114532E0,-6.000735760E-1,1.933602852E0
2.699832674E0,-9.372758865E-1,1.591850281E0,-6.473166943E-1,1.957419808E0
2.704821476E0,-9.864730835E-1,1.567861080E0,-6.668139696E-1,1.968745383E0
2.709806320E0,-1.042733669E0,1.527407169E0,-6.751823425E-1,1.968790837E0
2.714791216E0,-1.089226246E0,1.475413322E0,-6.531673670E-1,1.946762928E0
2.719776112E0,-1.140254974E0,1.462132931E0,-6.295146346E-1,1.958137582E0
2.724747622E0,-1.171832561E0,1.449388027E0,-5.704768300E-1,1.949194967E0
2.729731841E0,-1.181442738E0,1.420580387E0,-4.785571694E-1,1.908631065E0
2.734716060E0,-1.171535969E0,1.413933754E0,-4.041378498E-1,1.880168234E0
2.739700278E0,-1.087182522E0,1.434210777E0,-3.159909248E-1,1.827231965E0
2.744691685E0,-1.009657383E0,1.421649933E0,-2.263993025E-1,1.758338195E0
2.749676268E0,-8.863806725E-1,1.366737843E0,-1.807955503E-1,1.639002763E0
2.754660851E0,-7.700681686E-1,1.279088974E0,-9.291565418E-2,1.495896690E0
2.759645435E0,-6.607966423E-1,1.232742310E0,8.351206779E-3,1.398704953E0
2.764635122E0,-5.369844437E-1,1.198960304E0,8.461940289E-2,1.316441623E0
2.769619966E0,-3.940224648E-1,1.163206577E0,1.452171803E-1,1.236685600E0
2.774604810E0,-2.678022385E-1,1.137443542E0,2.118016481E-1,1.187584014E0
2.779589601E0,-1.511788368E-1,1.119191647E0,2.818664312E-1,1.163998998E0
2.784567987E0,2.527523041E-2,1.075047493E0,3.338464499E-1,1.125974867E0
2.789552518E0,1.969003677E-1,1.036069870E0,3.986936808E-1,1.127460501E0
2.794536997E0,3.803443909E-1,9.567055702E-1,4.569473267E-1,1.126387262E0
2.799521528E0,5.324754715E-1,8.966865540E-1,4.846603870E-1,1.149988085E0
2.804506997E0,6.821451187E-1,8.273019791E-1,5.029481649E-1,1.184359483E0
2.809491580E0,8.174605370E-1,8.059477806E-1,5.715025663E-1,1.282345015E0
2.814476112E0,9.550771713E-1,8.228812218E-1,6.375490427E-1,1.412718900E0
2.819460695E0,1.147635460E0,8.159050941E-1,7.056508064E-1,1.575027407E0
2.824442153E0,1.301791191E0,8.065466881E-1,7.853931189E-1,1.721052067E0
2.829426528E0,1.415194988E0,8.353729248E-1,8.645536900E-1,1.856900068E0
2.834410955E0,1.562108040E0,8.784394264E-1,9.069861174E-1,2.008596816E0
2.839395330E0,1.699368954E0,9.547219276E-1,9.817390442E-1,2.182466575E0
2.844388455E0,1.850948811E0,9.996709824E-1,1.048085451E0,2.350284384E0
2.849373299E0,2.023743629E0,1.027461052E0,1.103403091E0,2.523630891E0
2.854358143E0,2.174647331E0,1.076307774E0,1.121286511E0,2.672978279E0
2.859342987E0,2.329774380E0,1.131651878E0,1.084883332E0,2.808105496E0
2.864320487E0,2.532018661E0,1.224465847E0,1.015747190E0,2.990347382E0
2.869305018E0,2.728575230E0,1.304359436E0,9.376022816E-1,3.166318740E0
2.874289497E0,2.900014877E0,1.352002144E0,7.978043556E-1,3.297648841E0
2.879273924E0,3.051005840E0,1.398390770E0,6.178091764E-1,3.412597480E0
2.884262466E0,3.176694870E0,1.431501389E0,4.072233438E-1,3.508050367E0
2.889247153E0,3.224418640E0,1.511053562E0,1.638866663E-1,3.564690348E0
2.894231841E0,3.284803867E0,1.536428452E0,-1.260856390E-1,3.628559828E0
2.899216528E0,3.326751232E0,1.538855553E0,-4.072860479E-1,3.687984829E0
2.904208976E0,3.352771759E0,1.504123211E0,-6.843780279E-1,3.737892239E0
2.909194080E0,3.334268093E0,1.453964710E0,-9.089222550E-1,3.749332842E0
2.914179133E0,3.302542686E0,1.414866924E0,-1.106973290E0,3.759524767E0
2.919164185E0,3.247908115E0,1.372487068E0,-1.220576406E0,3.731277883E0
2.924140695E0,3.184970379E0,1.291173935E0,-1.280783296E0,3.667638517E0
2.929125383E0,3.116312504E0,1.223790169E0,-1.330258846E0,3.602589985E0
2.934110018E0,3.034917831E0,1.187195301E0,-1.340072870E0,3.523627992E0
2.939094653E0,2.976760387E0,1.131250858E0,-1.286246181E0,3.434422826E0
2.944079810E0,2.944281578E0,1.106279373E0,-1.266724944E0,3.390758049E0
2.949064497E0,2.915947914E0,1.050088882E0,-1.214618087E0,3.328773948E0
2.954049185E0,2.925172329E0,1.022476673E0,-1.134660006E0,3.299931064E0
2.959033820E0,2.890655518E0,1.030561924E0,-1.089181185E0,3.256418716E0
2.964023351E0,2.886528492E0,9.809918404E-1,-1.001903772E0,3.209081316E0
2.969008247E0,2.826514721E0,1.007546425E0,-9.471890926E-1,3.146665289E0
2.973993143E0,2.760897636E0,1.028809547E0,-8.725092411E-1,3.072828863E0
2.978978039E0,2.665800095E0,1.080608368E0,-8.043972254E-1,2.986847751E0
2.983962258E0,2.517438889E0,1.141390324E0,-6.784842610E-1,2.846157290E0
2.988947101E0,2.356792927E0,1.196952343E0,-5.906106830E-1,2.708503053E0
2.993931997E0,2.167208672E0,1.264024258E0,-4.668694735E-1,2.551963529E0
2.998916893E0,2.013404369E0,1.330744743E0,-3.168088198E-1,2.434141852E0
3.003901580E0,1.864389420E0,1.392405987E0,-1.621301174E-1,2.332601234E0
3.008886476E0,1.741718769E0,1.417970657E0,-1.723349094E-2,2.246001347E0
3.013871372E0,1.628626823E0,1.436188221E0,9.637773037E-2,2.173557131E0
3.018856216E0,1.549168587E0,1.389845848E0,2.194947004E-1,2.092790652E0
3.023956216E0,1.512691975E0,1.212065697E0,3.212828636E-1,1.964831530E0
3.028941060E0,1.521978855E0,9.440650940E-1,3.971809149E-1,1.834511165E0
3.034007935E0,1.567202091E0,5.596184731E-1,4.188059568E-1,1.716010973E0
3.039074758E0,1.665266991E0,1.427917480E-1,4.845095873E-1,1.740187683E0
3.044059601E0,1.758823395E0,-3.134307861E-1,5.250663757E-1,1.862093792E0
3.048964601E0,1.876580715E0,-7.348484993E-1,6.028063297E-1,2.103552464E0
3.053869601E0,1.987504005E0,-1.092740059E0,6.892337799E-1,2.370505476E0
3.058774601E0,2.089541435E0,-1.437121868E0,8.133083582E-1,2.663263629E0
3.063679445E0,2.192420483E0,-1.758289337E0,9.514170885E-1,2.967066471E0
3.068697414E0,2.262877464E0,-2.036975861E0,1.127713799E0,3.246786640E0
3.073670747E0,2.329804897E0,-2.196727753E0,1.322691083E0,3.464551252E0
3.078644080E0,2.374293804E0,-2.294934750E0,1.555668831E0,3.650219457E0
3.083617414E0,2.511530876E0,-2.321906567E0,1.783306479E0,3.857359128E0
3.088642778E0,2.698423386E0,-2.308789253E0,1.979368806E0,4.065697659E0
3.093618664E0,2.927661896E0,-2.193700314E0,2.207691669E0,4.272871136E0
3.098594653E0,3.184541702E0,-2.055977821E0,2.436801434E0,4.506256970E0
3.103570591E0,3.401799202E0,-1.793217659E0,2.630142927E0,4.658918244E0
3.108573664E0,3.593585491E0,-1.401100159E0,2.847141266E0,4.794074647E0
3.113551008E0,3.718658447E0,-8.995637894E-1,3.103570938E0,4.926437681E0
3.118528247E0,3.802952766E0,-3.369979858E-1,3.353391647E0,5.081461692E0
3.123505591E0,3.800790310E0,2.885751724E-1,3.612669945E0,5.251729881E0
3.128507466E0,3.762282372E0,9.385962486E-1,3.847406864E0,5.462441866E0
3.133486060E0,3.720311642E0,1.540829659E0,4.076285839E0,5.729832545E0
3.138464549E0,3.731898308E0,2.066419125E0,4.265636444E0,6.032645129E0
3.143443143E0,3.777431965E0,2.450586319E0,4.433903217E0,6.319324592E0
3.148464914E0,3.856409073E0,2.726690769E0,4.516305447E0,6.534810508E0
3.153445643E0,3.951549530E0,2.875439644E0,4.546387672E0,6.674768738E0
3.158426320E0,4.047949791E0,2.884718895E0,4.495629787E0,6.702103237E0
3.163406997E0,4.185837269E0,2.744917393E0,4.400215626E0,6.664660733E0
3.168400278E0,4.302495956E0,2.546755314E0,4.183967113E0,6.519433633E0
3.173381580E0,4.364207268E0,2.278151989E0,3.928595781E0,6.298424118E0
3.178362935E0,4.366064548E0,1.974884033E0,3.636776447E0,6.015715212E0
3.183344237E0,4.353504658E0,1.679961205E0,3.323358059E0,5.728872598E0
3.188336060E0,4.226070404E0,1.419606686E0,2.967524767E0,5.355479198E0
3.193317883E0,4.058409691E0,1.172520638E0,2.574849367E0,4.947256121E0
3.198299758E0,3.900925636E0,9.555296898E-1,2.174793243E0,4.567273088E0
3.203281633E0,3.670224667E0,7.425413132E-1,1.763449907E0,4.139042435E0
3.208270383E0,3.514921188E0,4.979639053E-1,1.310632706E0,3.784230054E0
3.213252570E0,3.337361813E0,2.318558693E-1,8.413096666E-1,3.449571418E0
3.218234758E0,3.188106537E0,9.070396423E-3,3.226258755E-1,3.204402131E0
3.223216945E0,3.060326099E0,-2.322230339E-1,-1.751922369E-1,3.074120312E0
3.228214028E0,2.920679569E0,-4.153175354E-1,-6.108980775E-1,3.012649044E0
3.233196945E0,2.791484833E0,-5.540018082E-1,-9.890151024E-1,3.012881751E0
3.238179914E0,2.641720772E0,-6.482605934E-1,-1.297309279E0,3.013626022E0
3.243162830E0,2.490969658E0,-6.954212189E-1,-1.514135003E0,2.996855905E0
3.248158091E0,2.370265007E0,-7.386660576E-1,-1.642001271E0,2.976567137E0
3.253141685E0,2.232294083E0,-7.824201584E-1,-1.657364964E0,2.888282673E0
3.258125226E0,2.098788738E0,-8.218712807E-1,-1.560835123E0,2.741640540E0
3.263108820E0,1.989100933E0,-8.402724266E-1,-1.338934064E0,2.540733103E0
3.268085903E0,1.848207951E0,-8.378820419E-1,-9.831606746E-1,2.254888879E0
3.273069133E0,1.695164680E0,-8.150210381E-1,-6.306515336E-1,1.983825583E0
3.278052362E0,1.525317669E0,-8.483443260E-1,-2.177777290E-1,1.758894319E0
3.283035591E0,1.331521988E0,-8.782196045E-1,1.995002031E-1,1.607488976E0
3.288032258E0,1.101774693E0,-9.168410301E-1,6.014724970E-1,1.554436912E0
3.293016112E0,9.153256416E-1,-9.736328125E-1,9.300333261E-1,1.628110522E0
3.298000018E0,7.171449661E-1,-1.089342594E0,1.249146461E0,1.805915577E0
3.302983976E0,4.907417297E-1,-1.196880817E0,1.548485637E0,2.017711303E0
3.307961997E0,2.672843933E-1,-1.291532040E0,1.746319532E0,2.188407610E0
3.312945591E0,2.517175674E-2,-1.378233433E0,1.899989247E0,2.347364512E0
3.317929237E0,-2.328338623E-1,-1.456732750E0,2.018677235E0,2.500267924E0
3.322912830E0,-5.041303635E-1,-1.505379677E0,2.063919544E0,2.603858537E0
3.327906737E0,-8.006019592E-1,-1.548080921E0,2.042999744E0,2.685398665E0
3.332890851E0,-1.030933857E0,-1.603439331E0,1.965773940E0,2.738267607E0
3.337875018E0,-1.274177074E0,-1.635566235E0,1.799261570E0,2.745167813E0
3.342859133E0,-1.532525539E0,-1.622702599E0,1.591728568E0,2.741422639E0
3.347840695E0,-1.760476589E0,-1.629319668E0,1.415252209E0,2.785121041E0
3.352824653E0,-1.986723423E0,-1.650425434E0,1.201003671E0,2.848400233E0
3.357808664E0,-2.211207390E0,-1.678612232E0,9.615142345E-1,2.937973242E0
3.362792674E0,-2.410011292E0,-1.677819252E0,7.691711187E-1,3.035598142E0
3.367788716E0,-2.604880810E0,-1.676882267E0,5.502605438E-1,3.146446382E0
3.372773351E0,-2.764329910E0,-1.694148064E0,3.414421082E-1,3.260098193E0
3.377757935E0,-2.941211224E0,-1.724896431E0,1.455624104E-1,3.412796445E0
3.382742518E0,-3.049561977E0,-1.754670143E0,-1.749062538E-2,3.518380521E0
3.387730226E0,-3.144499302E0,-1.828834057E0,-1.405261755E-1,3.640365019E0
3.392714966E0,-3.221233368E0,-1.904008865E0,-2.540403605E-1,3.750484059E0
3.397699705E0,-3.277494907E0,-1.932353020E0,-3.458322287E-1,3.820413720E0
3.402684497E0,-3.308817863E0,-1.983569145E0,-3.990606070E-1,3.878410960E0
3.407661997E0,-3.382089138E0,-2.021601200E0,-4.163048267E-1,3.962159520E0
3.412646372E0,-3.447241306E0,-2.080198765E0,-4.216156006E-1,4.048266202E0
3.417630747E0,-3.521049023E0,-2.147412300E0,-3.960464001E-1,4.143189419E0
3.422615174E0,-3.632163525E0,-2.251868725E0,-3.708518744E-1,4.289645176E0
3.427602778E0,-3.687287331E0,-2.371944427E0,-3.436731100E-1,4.397763003E0
3.432587310E0,-3.798815250E0,-2.445485592E0,-2.791922092E-1,4.526515810E0
3.437571841E0,-3.942667961E0,-2.510761738E0,-2.353609800E-1,4.680165590E0
3.442556372E0,-4.099696636E0,-2.551096439E0,-1.645488739E-1,4.831426485E0
3.447547570E0,-4.229087353E0,-2.592574120E0,-5.744850636E-2,4.960838713E0
3.452532414E0,-4.366507053E0,-2.610924244E0,2.096319199E-2,5.087607366E0
3.457517310E0,-4.512039661E0,-2.637323380E0,1.019082069E-1,5.227270970E0
3.462502205E0,-4.656154633E0,-2.628763199E0,1.541972160E-1,5.349200753E0
3.467489237E0,-4.820116043E0,-2.639949322E0,2.608731985E-1,5.501900210E0
3.472474237E0,-4.936862946E0,-2.694478035E0,2.761170864E-1,5.631080560E0
3.477459237E0,-5.061268806E0,-2.734549999E0,2.954635620E-1,5.760338909E0
3.482444185E0,-5.183795929E0,-2.726762295E0,2.995156050E-1,5.864868493E0
3.487425799E0,-5.251871109E0,-2.761933804E0,2.908372879E-1,5.940960765E0
3.492410643E0,-5.303878784E0,-2.818407059E0,2.888697386E-1,6.013151772E0
3.497395435E0,-5.318307877E0,-2.852983952E0,2.076201439E-1,6.038793110E0
3.502380226E0,-5.285707474E0,-2.939694405E0,1.409220695E-1,6.049823611E0
3.507358872E0,-5.270751953E0,-3.016232491E0,2.458739281E-2,6.072815585E0
3.512343403E0,-5.235305786E0,-3.097083092E0,-1.003819704E-1,6.083619555E0
3.517327883E0,-5.114975929E0,-3.203859806E0,-2.360287905E-1,6.040149502E0
3.522312466E0,-5.007910728E0,-3.322018623E0,-3.460412621E-1,6.019528400E0
3.527305226E0,-4.935712814E0,-3.418200493E0,-5.020071864E-1,6.024729605E0
3.532290174E0,-4.841036797E0,-3.528367519E0,-5.601570606E-1,6.016543073E0
3.537275070E0,-4.752663612E0,-3.657375336E0,-6.377240419E-1,6.030828941E0
3.542260018E0,-4.632294178E0,-3.757308006E0,-6.605749130E-1,6.000989254E0
3.547236008E0,-4.496689796E0,-3.876026154E0,-6.910828352E-1,5.976737685E0
3.552220539E0,-4.372223854E0,-4.049497604E0,-6.981903911E-1,6.000186839E0
3.557205018E0,-4.213413239E0,-4.210744381E0,-6.751440167E-1,5.994917748E0
3.562189445E0,-4.027535915E0,-4.424458027E0,-6.458523870E-1,6.017806883E0
3.567170070E0,-3.852893353E0,-4.602227688E0,-6.177721620E-1,6.033815486E0
3.572154341E0,-3.708658218E0,-4.770644188E0,-5.936266780E-1,6.071703581E0
3.577138560E0,-3.585235596E0,-4.929866791E0,-5.523045659E-1,6.120665093E0
3.582122883E0,-3.492126942E0,-5.065645695E0,-5.541067123E-1,6.177600758E0
3.587146945E0,-3.453199863E0,-5.139803410E0,-5.655933022E-1,6.217882611E0
3.592133247E0,-3.377472878E0,-5.233820915E0,-5.995855927E-1,6.257771752E0
3.597119549E0,-3.329521656E0,-5.237743378E0,-5.967724323E-1,6.235046711E0
3.602105799E0,-3.335629940E0,-5.218734741E0,-6.028515100E-1,6.222945391E0
3.607038403E0,-3.326438427E0,-5.196150303E0,-5.729075670E-1,6.196240284E0
3.612021997E0,-3.323471069E0,-5.191370010E0,-5.734090805E-1,6.190684979E0
3.617005591E0,-3.333908558E0,-5.230702877E0,-6.162884235E-1,6.233378721E0
3.621989185E0,-3.350539684E0,-5.302083969E0,-6.631405354E-1,6.306977561E0
3.626986789E0,-3.397183418E0,-5.367058277E0,-7.138717175E-1,6.391852827E0
3.631971060E0,-3.440219879E0,-5.413526535E0,-8.045089245E-1,6.464411572E0
3.636955330E0,-3.453296661E0,-5.460540295E0,-8.583688736E-1,6.517634177E0
3.641939601E0,-3.512947083E0,-5.484189510E0,-8.730907440E-1,6.571104872E0
3.646919653E0,-3.616517544E0,-5.450747013E0,-8.537455797E-1,6.596872263E0
3.651903716E0,-3.701743603E0,-5.376947403E0,-7.474690676E-1,6.570630037E0
3.656887778E0,-3.782890320E0,-5.291359901E0,-6.258424520E-1,6.534556416E0
3.661871841E0,-3.847811222E0,-5.239088058E0,-4.957373440E-1,6.519160253E0
3.666860278E0,-3.858220100E0,-5.210454464E0,-3.568127751E-1,6.493228274E0
3.671844549E0,-3.811757088E0,-5.183844090E0,-1.679586768E-1,6.436609492E0
3.676828820E0,-3.777702332E0,-5.132800102E0,2.312529087E-2,6.373162996E0
3.681813143E0,-3.705796719E0,-5.066929340E0,2.023867965E-1,6.280737431E0
3.686800018E0,-3.634255886E0,-4.988623142E0,3.626125455E-1,6.182690722E0
3.691784445E0,-3.582213402E0,-4.878927231E0,4.917673469E-1,6.072727468E0
3.696768872E0,-3.508845806E0,-4.685207367E0,6.518225074E-1,5.889655299E0
3.701753299E0,-3.452424049E0,-4.436402798E0,8.020085692E-1,5.678390559E0
3.706758455E0,-3.388841152E0,-4.103770733E0,9.374966025E-1,5.404079798E0
3.711743924E0,-3.332817078E0,-3.783791065E0,1.115554094E0,5.164223604E0
3.716729393E0,-3.303324223E0,-3.390305042E0,1.245064020E0,4.894517710E0
3.721714862E0,-3.240502834E0,-2.959321976E0,1.330934525E0,4.585829465E0
3.726694810E0,-3.149362564E0,-2.539105415E0,1.449692726E0,4.297342187E0
3.731679966E0,-3.029806137E0,-2.151082993E0,1.517616391E0,4.013731777E0
3.736665122E0,-2.860546112E0,-1.800391674E0,1.563382149E0,3.724016378E0
3.741650330E0,-2.641774654E0,-1.470506191E0,1.520139933E0,3.384108036E0
3.746615070E0,-2.402514458E0,-1.195293427E0,1.469453692E0,3.059427438E0
3.751599237E0,-2.147265434E0,-9.695668221E-1,1.332412243E0,2.706682666E0
3.756583403E0,-1.869367123E0,-8.083143234E-1,1.202432156E0,2.365110689E0
3.761567570E0,-1.564214706E0,-7.021369934E-1,1.002883554E0,1.986338196E0
3.766667570E0,-1.287996292E0,-6.088423729E-1,7.816847563E-1,1.625009090E0
3.771763455E0,-1.011176586E0,-5.304260254E-1,5.892468095E-1,1.284928659E0
3.776758508E0,-7.471389771E-1,-4.087514877E-1,3.707871437E-1,9.288581892E-1
3.781753560E0,-4.828929901E-1,-2.832808495E-1,1.524729729E-1,5.802427828E-1
3.786658560E0,-2.459759712E-1,-1.745162010E-1,2.765518427E-2,3.028611762E-1
3.791563560E0,-6.648635864E-2,-3.824424744E-2,-7.307523489E-2,1.059388895E-1
3.796495435E0,1.394362450E-1,9.693336487E-2,-1.952534318E-1,2.587710306E-1
3.801479341E0,3.384637833E-1,1.834526062E-1,-2.548641562E-1,4.617015588E-1
3.806440643E0,5.318012238E-1,2.249407768E-1,-2.995929718E-1,6.505127542E-1
3.811423455E0,7.270646095E-1,2.028799057E-1,-3.531380594E-1,8.333604812E-1
3.816406216E0,9.597206116E-1,1.242141724E-1,-4.031991959E-1,1.048361772E0
3.821389028E0,1.198538303E0,8.462190628E-2,-4.115291238E-1,1.270043760E0
3.826379133E0,1.440948486E0,6.005144119E-2,-4.067643285E-1,1.498464526E0
3.831362310E0,1.619532585E0,4.771184921E-2,-3.960995674E-1,1.667949964E0
3.836345487E0,1.839495182E0,-1.937484741E-2,-3.916348815E-1,1.880823168E0
3.841328664E0,1.981070042E0,-6.471157074E-2,-3.505250812E-1,2.012881996E0
3.846320070E0,2.087443352E0,-9.540319443E-2,-3.591180444E-1,2.120256420E0
3.851303664E0,2.179809093E0,-1.475877762E-1,-3.025394082E-1,2.205647281E0
3.856287205E0,2.253349781E0,-1.901273727E-1,-2.503238916E-1,2.275169379E0
3.861270799E0,2.310547352E0,-2.133383751E-1,-2.025305629E-1,2.329197492E0
3.866255903E0,2.346533775E0,-1.957573891E-1,-1.281985641E-1,2.358172298E0
3.871239601E0,2.337307453E0,-2.307353020E-1,-5.141919851E-2,2.349231543E0
3.876223247E0,2.316500664E0,-2.200150490E-1,4.928314686E-2,2.327447266E0
3.881206893E0,2.262708187E0,-2.185249329E-1,1.473810673E-1,2.278008487E0
3.886219549E0,2.159595490E0,-2.020010948E-1,2.642382383E-1,2.185058115E0
3.891204705E0,2.052388191E0,-1.586856842E-1,3.734993935E-1,2.092123378E0
3.896189810E0,1.958238125E0,-1.336979866E-1,5.058742166E-1,2.026938684E0
3.901174966E0,1.853120327E0,-7.205772400E-2,6.852667332E-1,1.977078086E0
3.906158820E0,1.711166382E0,2.624988556E-3,8.467869759E-1,1.909226403E0
3.911143872E0,1.585106850E0,1.119198799E-1,9.854003787E-1,1.869787071E0
3.916128976E0,1.436872482E0,2.200746536E-1,1.081693769E0,1.811931785E0
3.921114028E0,1.300290585E0,3.393058777E-1,1.233606815E0,1.824190192E0
3.926086320E0,1.192099571E0,4.409108162E-1,1.321302056E0,1.833396536E0
3.931070747E0,1.105365753E0,5.394544601E-1,1.413913846E0,1.874032264E0
3.936055122E0,1.030361176E0,6.754984856E-1,1.511540890E0,1.950050824E0
3.941039549E0,9.433135986E-1,7.845559120E-1,1.633296967E0,2.042798939E0
3.946023351E0,8.417625427E-1,9.454927444E-1,1.649925590E0,2.079609377E0
3.951007726E0,8.261542320E-1,1.096087933E0,1.686058283E0,2.174104897E0
3.955992101E0,7.816157341E-1,1.202900410E0,1.684430122E0,2.212509297E0
3.960976476E0,7.271876335E-1,1.273051262E0,1.642581701E0,2.201712065E0
3.965966841E0,7.131500244E-1,1.402286053E0,1.618131399E0,2.256842563E0
3.970951528E0,6.747446060E-1,1.485249996E0,1.570780754E0,2.264641255E0
3.975936216E0,6.191434860E-1,1.543504715E0,1.507801771E0,2.244818844E0
3.980920903E0,5.367751122E-1,1.620119095E0,1.371986389E0,2.189808223E0
3.985906268E0,4.707255363E-1,1.667296886E0,1.288131714E0,2.158875807E0
3.990891008E0,4.329743385E-1,1.735329628E0,1.184484124E0,2.145189580E0
3.995875695E0,3.972883224E-1,1.807559967E0,1.049385071E0,2.127514999E0
4.000860435E0,3.732852936E-1,1.852970600E0,9.428856373E-1,2.112315147E0
4.005866268E0,3.443408012E-1,1.886060238E0,8.197141886E-1,2.085119939E0
4.010851945E0,2.983708382E-1,1.894873142E0,6.972063780E-1,2.040996354E0
4.015837674E0,2.737541199E-1,1.886721134E0,6.042736769E-1,1.999951158E0
4.020823351E0,3.113217354E-1,1.897681713E0,4.144054651E-1,1.967193177E0
4.025809080E0,3.609681129E-1,1.920720100E0,2.952904701E-1,1.976527294E0
4.030766424E0,4.129209518E-1,1.891171932E0,1.418634653E-1,1.940917369E0
4.035750903E0,5.081300735E-1,1.842787743E0,1.391673088E-2,1.911610973E0
4.040735383E0,6.680383682E-1,1.794737339E0,-9.797132015E-2,1.917538984E0
4.045719862E0,7.657580376E-1,1.754132748E0,-2.250325084E-1,1.927175835E0
4.050697258E0,8.993964195E-1,1.740112305E0,-3.503721356E-1,1.989890797E0
4.055681372E0,1.016205788E0,1.695201874E0,-4.524295926E-1,2.027578884E0
4.060665539E0,1.144970894E0,1.691236019E0,-5.192079544E-1,2.107324019E0
4.065649653E0,1.288059711E0,1.668367386E0,-6.178213358E-1,2.196417710E0
4.070636997E0,1.380879402E0,1.645760059E0,-6.763694286E-1,2.252294319E0
4.075621268E0,1.471216202E0,1.659218311E0,-7.140501142E-1,2.329667376E0
4.080605591E0,1.614164829E0,1.653739452E0,-7.047145367E-1,2.415989414E0
4.085589862E0,1.699557781E0,1.638853550E0,-6.340169907E-1,2.444650313E0
4.090591580E0,1.789695740E0,1.621787071E0,-5.330958366E-1,2.473336879E0
4.095576789E0,1.846273899E0,1.659875870E0,-4.165353179E-1,2.517422667E0
4.100561945E0,1.924355507E0,1.712368011E0,-2.942153811E-1,2.592664848E0
4.105547101E0,2.043128967E0,1.743381977E0,-1.831895113E-1,2.692083783E0
4.110517310E0,2.145071030E0,1.757624149E0,-5.030381680E-2,2.773644326E0
4.115501737E0,2.251692772E0,1.790930271E0,1.041942835E-1,2.878959538E0
4.120486164E0,2.331626415E0,1.843089581E0,2.131950855E-1,2.979750507E0
4.125470591E0,2.406357288E0,1.906868935E0,2.958953381E-1,3.084519182E0
4.130451008E0,2.466293335E0,1.986967087E0,3.950128555E-1,3.191657277E0
4.135435226E0,2.492248535E0,2.037899971E0,4.292824268E-1,3.247864291E0
4.140419445E0,2.551168919E0,2.057263851E0,4.703640938E-1,3.310897127E0
4.145403716E0,2.609636307E0,2.018874168E0,4.609360695E-1,3.331443624E0
4.150394966E0,2.720284939E0,1.889346600E0,4.943362474E-1,3.348723495E0
4.155379601E0,2.813634872E0,1.738119602E0,4.845225811E-1,3.342508501E0
4.160364133E0,2.942236423E0,1.589089394E0,4.960925579E-1,3.380542575E0
4.165348716E0,3.024962425E0,1.432799816E0,4.499861002E-1,3.377247471E0
4.170336060E0,3.109731674E0,1.302791595E0,4.588640928E-1,3.402683247E0
4.175320799E0,3.218135357E0,1.146458626E0,5.225749016E-1,3.455987136E0
4.180305539E0,3.292830944E0,1.016500950E0,5.765813589E-1,3.494060084E0
4.185290226E0,3.340978146E0,9.989361763E-1,6.806719303E-1,3.552931568E0
4.190279914E0,3.410534382E0,9.956355095E-1,8.299512863E-1,3.648541349E0
4.195264862E0,3.532577038E0,9.993638992E-1,9.163740873E-1,3.783856525E0
4.200249810E0,3.647285938E0,1.029247284E0,9.686260223E-1,3.911557370E0
4.205234810E0,3.788109779E0,1.018267155E0,1.001008630E0,4.048291241E0
4.210214653E0,3.950133801E0,9.926881790E-1,9.296071529E-1,4.177697490E0
4.215199341E0,4.138010502E0,9.835777283E-1,8.001264334E-1,4.327904617E0
4.220184080E0,4.339535713E0,1.014749050E0,6.822506189E-1,4.508519907E0
4.225168820E0,4.501648426E0,1.057247639E0,5.450637341E-1,4.656147076E0
4.230150070E0,4.662508965E0,1.151658535E0,4.054847956E-1,4.819722517E0
4.235134601E0,4.776479721E0,1.230903149E0,2.566666603E-1,4.939206299E0
4.240119080E0,4.872148991E0,1.388191223E0,1.178629398E-1,5.067425612E0
4.245103664E0,4.949296474E0,1.506134510E0,-6.132364273E-3,5.173394858E0
4.250086528E0,5.029288769E0,1.644501686E0,-1.295281649E-1,5.292911190E0
4.255071008E0,5.140675068E0,1.764964581E0,-2.042903900E-1,5.439060092E0
4.260055435E0,5.259204865E0,1.807605743E0,-2.544260621E-1,5.566992631E0
4.265039966E0,5.344069958E0,1.815476894E0,-2.608956695E-1,5.650053683E0
4.270024133E0,5.430901051E0,1.721506119E0,-2.549343705E-1,5.702916891E0
4.275008612E0,5.507554531E0,1.547221661E0,-2.558093667E-1,5.726472755E0
4.279993039E0,5.535561085E0,1.290244579E0,-2.393255830E-1,5.688975684E0
4.284977466E0,5.543658257E0,1.015231133E0,-2.006493807E-1,5.639423844E0
4.289971008E0,5.486526966E0,7.174291611E-1,-1.376020908E-1,5.534945084E0
4.294955903E0,5.378753185E0,4.423875809E-1,-7.158792019E-2,5.397389872E0
4.299940799E0,5.218325615E0,1.639022827E-1,7.371091843E-2,5.221419298E0
4.304925695E0,5.034368992E0,-7.003498077E-2,2.024204731E-1,5.038923505E0
4.309898924E0,4.858602524E0,-3.093605042E-1,3.218356371E-1,4.879067594E0
4.314883247E0,4.722113132E0,-5.421152115E-1,4.702823162E-1,4.776338220E0
4.319867570E0,4.553697586E0,-7.847175598E-1,6.406502724E-1,4.665016198E0
4.324851893E0,4.408680439E0,-9.748544693E-1,8.016383648E-1,4.585785485E0
4.329846945E0,4.258438587E0,-1.129252434E0,9.439133406E-1,4.505605692E0
4.334831789E0,4.187004566E0,-1.202369690E0,1.103116155E0,4.493725109E0
4.339816633E0,4.129817963E0,-1.191873550E0,1.240878344E0,4.473895174E0
4.344801528E0,4.098896503E0,-1.085885048E0,1.407328725E0,4.467736902E0
4.349785799E0,4.050898075E0,-9.158010483E-1,1.585463047E0,4.445465088E0
4.354770591E0,3.959210873E0,-6.628084183E-1,1.746322751E0,4.377705893E0
4.359755435E0,3.823693752E0,-3.271713257E-1,1.865772843E0,4.267175095E0
4.364740278E0,3.670559406E0,3.344249725E-2,1.967202425E0,4.164614044E0
4.369722935E0,3.502272606E0,3.902482986E-1,2.047679901E0,4.075684006E0
4.374707622E0,3.361753941E0,7.096266747E-1,2.145171642E0,4.050521071E0
4.379692362E0,3.188775063E0,9.985094070E-1,2.209350824E0,4.005813089E0
4.384677101E0,3.028802872E0,1.199535847E0,2.228486300E0,3.946984199E0
4.389663299E0,2.874378681E0,1.346107483E0,2.248196125E0,3.889530046E0
4.394648091E0,2.687108517E0,1.421460629E0,2.254333258E0,3.784589930E0
4.399632883E0,2.450341225E0,1.454388618E0,2.280591965E0,3.649728494E0
4.404617674E0,2.247766018E0,1.432910442E0,2.276794434E0,3.505635078E0
4.409600851E0,2.005348206E0,1.361978531E0,2.286454678E0,3.332308800E0
4.414585591E0,1.747136593E0,1.272755623E0,2.249818325E0,3.119948020E0
4.419570278E0,1.511712551E0,1.182168484E0,2.265043497E0,2.968706655E0
4.424554966E0,1.251345158E0,1.080734730E0,2.279727697E0,2.816205006E0
4.429539914E0,1.014107704E0,8.992490768E-1,2.274838924E0,2.648009719E0
4.434524653E0,7.955055237E-1,7.408833504E-1,2.219708920E0,2.471607749E0
4.439509341E0,6.625323296E-1,5.674185753E-1,2.200793982E0,2.367362895E0
4.444494080E0,5.125102997E-1,3.121676445E-1,2.137291193E0,2.219938983E0
4.449485018E0,4.172391891E-1,5.187129974E-2,1.977266073E0,2.021474783E0
4.454470018E0,3.576555252E-1,-1.607041359E-1,1.797730327E0,1.839993919E0
4.459455070E0,2.932167053E-1,-3.947653770E-1,1.532258511E0,1.609233321E0
4.464440122E0,2.909159660E-1,-6.214747429E-1,1.279533029E0,1.451918636E0
4.469416008E0,3.053135872E-1,-8.239603043E-1,1.008960366E0,1.337956647E0
4.474400539E0,3.482594490E-1,-9.711565971E-1,7.592670918E-1,1.280982551E0
4.479385122E0,4.508304596E-1,-1.094167233E0,5.450006723E-1,1.302872123E0
4.484369705E0,4.980626106E-1,-1.205044270E0,3.711235523E-1,1.355703045E0
4.489360070E0,5.376110077E-1,-1.258613110E0,2.374615669E-1,1.389071831E0
4.494344966E0,5.456948280E-1,-1.302719116E0,1.821589470E-1,1.424093334E0
4.499329810E0,4.816370010E-1,-1.275322914E0,1.954308748E-1,1.377176809E0
4.504314705E0,4.125485420E-1,-1.265027523E0,2.936527729E-1,1.362616191E0
4.509295851E0,3.218874931E-1,-1.240675449E0,4.643797874E-1,1.363281231E0
4.514280591E0,1.761975288E-1,-1.231108665E0,6.663665771E-1,1.410928251E0
4.519265226E0,5.950307846E-2,-1.238599300E0,9.085646868E-1,1.537256853E0
4.524249914E0,-3.767299652E-2,-1.258339405E0,1.190406322E0,1.732600510E0
4.529224862E0,-1.892147064E-1,-1.294951916E0,1.484997869E0,1.979373976E0
4.534209080E0,-3.355531693E-1,-1.305678368E0,1.803969264E0,2.252042858E0
4.539193247E0,-5.338788033E-1,-1.278524399E0,2.086695194E0,2.504785030E0
4.544177414E0,-7.407565117E-1,-1.244380951E0,2.447396517E0,2.843756999E0
4.549175278E0,-9.273195267E-1,-1.200736523E0,2.691867590E0,3.089958062E0
4.554160122E0,-1.054989338E0,-1.178390503E0,2.927212238E0,3.327187727E0
4.559145018E0,-1.202861309E0,-1.158284664E0,3.129133940E0,3.546826455E0
4.564129862E0,-1.310963154E0,-1.166523933E0,3.330913782E0,3.764888989E0
4.569114185E0,-1.398349285E0,-1.181381702E0,3.436709404E0,3.893843214E0
4.574099028E0,-1.460311890E0,-1.183716297E0,3.494325161E0,3.967871396E0
4.579083872E0,-1.551955700E0,-1.192698479E0,3.489365578E0,4.000845947E0
4.584068716E0,-1.584712982E0,-1.174753666E0,3.424005747E0,3.951604328E0
4.589049133E0,-1.546646595E0,-1.175258160E0,3.298041821E0,3.827587658E0
4.594033716E0,-1.497795582E0,-1.254092693E0,3.166541100E0,3.720634707E0
4.599018351E0,-1.440639496E0,-1.272471905E0,2.900690079E0,3.479745657E0
4.604002935E0,-1.384875298E0,-1.287939548E0,2.608387470E0,3.221855531E0
4.608995643E0,-1.359405518E0,-1.295885086E0,2.368853092E0,3.023039280E0
4.613980643E0,-1.275803089E0,-1.353749752E0,2.115379572E0,2.816938524E0
4.618965643E0,-1.251604557E0,-1.385208607E0,1.882003307E0,2.650896697E0
4.623950695E0,-1.243586540E0,-1.457060814E0,1.640615106E0,2.522132356E0
4.628930539E0,-1.211132526E0,-1.521425247E0,1.403768301E0,2.398362404E0
4.633915330E0,-1.199862480E0,-1.585645676E0,1.185869217E0,2.315216616E0
4.638900070E0,-1.221687317E0,-1.635328770E0,9.822932482E-1,2.265330022E0
4.643884862E0,-1.231225014E0,-1.634713650E0,8.385764360E-1,2.211654175E0
4.648870278E0,-1.240621090E0,-1.586434841E0,7.285144329E-1,2.141646440E0
4.653855070E0,-1.264400482E0,-1.564889431E0,6.521112323E-1,2.114908171E0
4.658839862E0,-1.336072922E0,-1.555732250E0,6.120252609E-1,2.140086121E0
4.663824705E0,-1.448478222E0,-1.525551319E0,5.748956203E-1,2.180802825E0
4.668845330E0,-1.565859795E0,-1.527185917E0,5.646541715E-1,2.258992708E0
4.673831945E0,-1.737886429E0,-1.526494980E0,6.192740798E-1,2.394563958E0
4.678818560E0,-1.916875362E0,-1.528512955E0,6.359445453E-1,2.532822235E0
4.683805122E0,-2.090862751E0,-1.499782562E0,7.197728157E-1,2.671914610E0
4.688752883E0,-2.283307552E0,-1.506722450E0,8.706278205E-1,2.870835893E0
4.693737466E0,-2.465746880E0,-1.506554127E0,1.019160271E0,3.064033399E0
4.698722153E0,-2.645085335E0,-1.503736973E0,1.193729639E0,3.268438735E0
4.703706789E0,-2.833252430E0,-1.479083061E0,1.368090153E0,3.476589809E0
4.708693195E0,-2.998925209E0,-1.506461620E0,1.498964071E0,3.675577820E0
4.713677935E0,-3.106172562E0,-1.525895119E0,1.614995003E0,3.819014631E0
4.718662674E0,-3.210018158E0,-1.594679356E0,1.728292704E0,3.979222850E0
4.723647414E0,-3.279311180E0,-1.650469780E0,1.836409688E0,4.104915694E0
4.728634133E0,-3.314011574E0,-1.714663982E0,1.891528130E0,4.183374708E0
4.733618924E0,-3.342975616E0,-1.796916962E0,1.963342905E0,4.273068207E0
4.738603820E0,-3.354227543E0,-1.885185719E0,1.951420665E0,4.314256624E0
4.743588612E0,-3.376465321E0,-1.981803894E0,1.937139392E0,4.368131610E0
4.748558039E0,-3.361857414E0,-2.041324139E0,1.874961138E0,4.357128502E0
4.753542101E0,-3.336825848E0,-2.171466827E0,1.757838488E0,4.351973238E0
4.758526112E0,-3.308623791E0,-2.288523197E0,1.679067612E0,4.359311627E0
4.763510174E0,-3.306021690E0,-2.464300156E0,1.567149758E0,4.411180459E0
4.768518091E0,-3.285926819E0,-2.574309349E0,1.436705709E0,4.414578913E0
4.773503351E0,-3.262635708E0,-2.678294182E0,1.354716420E0,4.433205168E0
4.778488560E0,-3.262611389E0,-2.778825760E0,1.244891882E0,4.462763883E0
4.783473820E0,-3.268975258E0,-2.894847393E0,1.152858257E0,4.516129186E0
4.788457310E0,-3.276910305E0,-3.011931419E0,1.052355528E0,4.573546127E0
4.793442414E0,-3.269471169E0,-3.105857372E0,9.074705243E-1,4.599923314E0
4.798427622E0,-3.253800392E0,-3.210063457E0,8.352043629E-1,4.646427738E0
4.803412726E0,-3.213178635E0,-3.303016186E0,7.924000621E-1,4.675717134E0
4.808380695E0,-3.128435135E0,-3.418110847E0,7.453322411E-1,4.693198090E0
4.813365018E0,-3.073934078E0,-3.538785458E0,6.801183820E-1,4.736521323E0
4.818349237E0,-3.013733864E0,-3.643467903E0,6.229752302E-1,4.769229319E0
4.823333560E0,-2.924026966E0,-3.751436234E0,5.859434605E-1,4.792341521E0
4.828328039E0,-2.876595497E0,-3.834000111E0,5.451503396E-1,4.824059224E0
4.833312830E0,-2.852159023E0,-3.926939964E0,4.716043472E-1,4.876277190E0
4.838297674E0,-2.798151016E0,-4.013602734E0,4.108136296E-1,4.909931145E0
4.843282466E0,-2.740778923E0,-4.053164959E0,3.721924424E-1,4.906989149E0
4.848262518E0,-2.677711010E0,-4.129457951E0,2.983930111E-1,4.930679224E0
4.853247101E0,-2.594571590E0,-4.156311512E0,2.515400052E-1,4.906118578E0
4.858231685E0,-2.515353680E0,-4.191257477E0,2.484531999E-1,4.894422577E0
4.863216216E0,-2.447216034E0,-4.248640060E0,2.267744839E-1,4.908282321E0
4.868202518E0,-2.373553753E0,-4.249744892E0,2.008942366E-1,4.871801264E0
4.873187205E0,-2.280104637E0,-4.271299362E0,2.567166090E-1,4.848585239E0
4.878171841E0,-2.214675426E0,-4.318024635E0,1.835040152E-1,4.856315241E0
4.883156528E0,-2.165320873E0,-4.349331856E0,1.580670178E-1,4.861099388E0
4.888139445E0,-2.096256733E0,-4.384552002E0,1.177695096E-1,4.861322681E0
4.893123976E0,-2.043449402E0,-4.399895668E0,6.234785914E-2,4.851665137E0
4.898108560E0,-2.049828529E0,-4.400049210E0,3.695386648E-2,4.854234815E0
4.903093091E0,-2.050754547E0,-4.387426853E0,-3.512924910E-2,4.843174854E0
4.908080383E0,-2.050983429E0,-4.376347065E0,-4.636321962E-2,4.833331792E0
4.913065070E0,-2.084027290E0,-4.321433067E0,-1.308578402E-1,4.799487189E0
4.918049758E0,-2.171451092E0,-4.196563721E0,-1.547774673E-1,4.727610704E0
4.923034497E0,-2.332193851E0,-4.004047394E0,-1.971848905E-1,4.637931174E0
4.928021424E0,-2.556405067E0,-3.743709087E0,-1.770340651E-1,4.536728520E0
4.933006268E0,-2.786459446E0,-3.451304913E0,-1.042494923E-1,4.436973045E0
4.937991060E0,-3.029355526E0,-3.040583134E0,2.312687039E-2,4.292164436E0
4.942975903E0,-3.270558834E0,-2.599965096E0,2.286262810E-1,4.184333108E0
4.947962518E0,-3.500458241E0,-2.103150368E0,4.452294111E-1,4.107880060E0
4.952947414E0,-3.783560276E0,-1.554944038E0,7.110079527E-1,4.151952749E0
4.957932310E0,-4.038350105E0,-1.026992798E0,1.004426956E0,4.286240694E0
4.962917205E0,-4.269603729E0,-4.642620087E-1,1.289975286E0,4.484316164E0
4.967888247E0,-4.489388466E0,4.696512222E-2,1.546452999E0,4.748508334E0
4.972872466E0,-4.604208946E0,4.711542130E-1,1.735723734E0,4.943021666E0
4.977856633E0,-4.704955578E0,8.611068726E-1,1.901280522E0,5.147133150E0
4.982840851E0,-4.755812645E0,1.147418976E0,2.043636322E0,5.301959415E0
4.987839549E0,-4.711377144E0,1.311092854E0,2.108420610E0,5.325549411E0
4.992824445E0,-4.653281212E0,1.380664825E0,2.127356052E0,5.299519334E0
4.997809393E0,-4.516880989E0,1.411325932E0,2.131802797E0,5.190244495E0
5.002794341E0,-4.398085594E0,1.400504112E0,2.062542439E0,5.055556347E0
5.007777726E0,-4.218117714E0,1.364778519E0,2.018108845E0,4.871129311E0
5.012762570E0,-4.015530586E0,1.308700085E0,1.991897464E0,4.669565002E0
5.017747466E0,-3.812101603E0,1.298975468E0,2.001007557E0,4.497053161E0
5.022732258E0,-3.617662191E0,1.299372196E0,1.973958731E0,4.321152729E0
5.027715955E0,-3.396529198E0,1.269022465E0,1.908765554E0,4.097586430E0
5.032700747E0,-3.125011444E0,1.269926071E0,1.884455562E0,3.863881664E0
5.037685539E0,-2.832188606E0,1.225170135E0,1.891463041E0,3.619387600E0
5.042670330E0,-2.501680851E0,1.165569305E0,1.889402390E0,3.344667439E0
5.047656112E0,-2.143360138E0,1.019146442E0,1.804174900E0,2.981224450E0
5.052640955E0,-1.819890976E0,8.525404930E-1,1.645934820E0,2.597677788E0
5.057625799E0,-1.517187119E0,6.822676659E-1,1.451067686E0,2.207474428E0
5.062610591E0,-1.283214092E0,5.249466896E-1,1.195799112E0,1.830885838E0
5.067593403E0,-1.067707062E0,3.782134056E-1,9.189249873E-1,1.458583862E0
5.072578143E0,-8.611812592E-1,1.917929649E-1,5.251956582E-1,1.026765885E0
5.077562883E0,-6.636233330E-1,5.660581589E-2,1.246312261E-1,6.775936016E-1
5.082547622E0,-4.773664474E-1,-7.758331299E-2,-3.713367581E-1,6.097449332E-1
5.087534237E0,-3.116178513E-1,-2.248048782E-1,-8.648414612E-1,9.463581095E-1
5.092519080E0,-1.278271675E-1,-3.752808571E-1,-1.346992373E0,1.404123912E0
5.097503924E0,5.748319626E-2,-5.407800674E-1,-1.748848915E0,1.831452955E0
5.102488768E0,2.374911308E-1,-7.185988426E-1,-2.180917025E0,2.308502849E0
5.107467414E0,4.269642830E-1,-8.820934296E-1,-2.531612873E0,2.714673287E0
5.112451945E0,6.455240250E-1,-1.016500950E0,-2.760944605E0,3.012107329E0
5.117436476E0,8.885011673E-1,-1.181576729E0,-2.982646942E0,3.328924852E0
5.122421008E0,1.143992901E0,-1.336594582E0,-3.185598850E0,3.639126938E0
5.127412622E0,1.414537430E0,-1.474266529E0,-3.342199087E0,3.917227677E0
5.132397466E0,1.707206726E0,-1.554057121E0,-3.365388870E0,4.081113891E0
5.137382362E0,2.002762794E0,-1.556957245E0,-3.298965931E0,4.161532276E0
5.142367258E0,2.226632118E0,-1.509737492E0,-3.169722557E0,4.157443803E0
5.147344497E0,2.462139130E0,-1.424788952E0,-3.059265614E0,4.177470376E0
5.152329028E0,2.608651161E0,-1.328575134E0,-2.795559645E0,4.047879259E0
5.157313560E0,2.680077076E0,-1.121122837E0,-2.503245354E0,3.834835961E0
5.162298039E0,2.685783863E0,-9.151606560E-1,-2.096517324E0,3.527936915E0
5.167284549E0,2.652019978E0,-7.227125168E-1,-1.634993911E0,3.198238333E0
5.172269133E0,2.557053089E0,-5.176458359E-1,-1.130247831E0,2.843226666E0
5.177253716E0,2.460730076E0,-3.214693069E-1,-6.202834249E-1,2.557984861E0
5.182238351E0,2.363012791E0,-1.652669907E-1,-5.435481668E-2,2.369408591E0
5.187231528E0,2.282883644E0,1.546573639E-2,4.457301199E-1,2.326042188E0
5.192216633E0,2.169961929E0,1.703777313E-1,9.161678553E-1,2.361594141E0
5.197201633E0,2.057660103E0,2.922525406E-1,1.342860341E0,2.474399026E0
5.202186685E0,1.914748192E0,4.384064674E-1,1.711629748E0,2.605405393E0
5.207172622E0,1.770050049E0,5.562911034E-1,2.111160278E0,2.810611088E0
5.212157674E0,1.575822353E0,6.220993996E-1,2.472169638E0,2.996972884E0
5.217142778E0,1.387241840E0,6.455616951E-1,2.740132332E0,3.138393701E0
5.222127883E0,1.216481209E0,6.580066681E-1,2.941695213E0,3.250595335E0
5.227109914E0,1.068473339E0,6.667633057E-1,3.024492025E0,3.276241840E0
5.232094862E0,9.433727264E-1,6.528577805E-1,3.079615116E0,3.286366481E0
5.237079758E0,8.053264618E-1,5.900440216E-1,3.045016527E0,3.204501257E0
5.242064705E0,6.665086746E-1,5.024652481E-1,2.976048470E0,3.090884927E0
5.247059080E0,5.511670113E-1,3.712949753E-1,2.836849689E0,2.913650836E0
5.252044445E0,4.713344574E-1,2.684121132E-1,2.632531404E0,2.687828646E0
5.257029862E0,3.721046448E-1,1.532416344E-1,2.408683300E0,2.442068817E0
5.262015278E0,3.395233154E-1,1.237854958E-1,2.155884027E0,2.185963145E0
5.266962987E0,2.467722893E-1,1.129856110E-1,1.888681054E0,1.908082397E0
5.271946476E0,1.658501625E-1,8.509254456E-2,1.635562301E0,1.646150375E0
5.276930018E0,1.301817894E-1,7.597923279E-2,1.396851420E0,1.404960509E0
5.281913560E0,6.800842285E-2,7.130622864E-2,1.100885510E0,1.105286674E0
5.286940695E0,-3.932476044E-3,7.820844650E-2,8.337330222E-1,8.374023990E-1
5.291926424E0,-1.141982079E-1,1.159458160E-1,5.720363855E-1,5.947354784E-1
5.296912101E0,-1.883835793E-1,1.200919151E-1,2.963460088E-1,3.711218101E-1
5.301897830E0,-2.503976822E-1,1.839933395E-1,5.458790064E-2,3.154875388E-1
5.306880747E0,-3.311591148E-1,2.216520309E-1,-2.369238138E-1,4.636042231E-1
5.311866268E0,-3.924012184E-1,2.115731239E-1,-4.752477407E-1,6.516151610E-1
5.316851893E0,-4.938812256E-1,2.901740074E-1,-7.057236433E-1,9.089364556E-1
5.321837414E0,-5.708184242E-1,3.546915054E-1,-9.304940701E-1,1.147806147E0
5.326784080E0,-6.565608978E-1,4.507718086E-1,-1.101210117E0,1.359018454E0
5.331767674E0,-7.269501686E-1,5.115962029E-1,-1.270853281E0,1.550888547E0
5.336751320E0,-7.629256248E-1,5.587577820E-1,-1.345589399E0,1.644650905E0
5.341734914E0,-8.241806030E-1,5.995965004E-1,-1.408962607E0,1.738955220E0
5.346738247E0,-8.436298370E-1,6.318717003E-1,-1.405567884E0,1.756870577E0
5.351722935E0,-8.452382088E-1,6.748027802E-1,-1.358808756E0,1.736705979E0
5.356707518E0,-8.384914398E-1,6.902351379E-1,-1.309201002E0,1.701029013E0
5.361692101E0,-8.042578697E-1,6.854510307E-1,-1.246743560E0,1.634332690E0
5.366693143E0,-6.876330376E-1,6.412963867E-1,-1.106943369E0,1.452385580E0
5.371678508E0,-5.533261299E-1,6.103787422E-1,-9.832835197E-1,1.282801035E0
5.376663976E0,-4.205527306E-1,5.997624397E-1,-8.521248102E-1,1.123697591E0
5.381649393E0,-2.296829224E-1,5.805664062E-1,-7.233111262E-1,9.555054067E-1
5.386608091E0,-2.629327774E-2,5.909614563E-1,-5.755869150E-1,8.253648139E-1
5.391592153E0,2.229843140E-1,5.566372871E-1,-4.429672360E-1,7.455112648E-1
5.396576216E0,4.699621201E-1,5.586552620E-1,-3.281643391E-1,8.004073522E-1
5.401560383E0,7.118935585E-1,5.631737709E-1,-2.170516253E-1,9.333105287E-1
5.406573455E0,8.961310387E-1,5.964021683E-1,-1.650515199E-1,1.089030940E0
5.411559028E0,1.070025921E0,6.052432060E-1,-1.220915318E-1,1.235387045E0
5.416544601E0,1.231226444E0,5.562329292E-1,-7.418572903E-2,1.353076920E0
5.421530174E0,1.312582970E0,5.544800758E-1,-7.887381315E-2,1.427075080E0
5.426605539E0,1.345595360E0,5.643072128E-1,-9.547722340E-2,1.462253536E0
5.431595643E0,1.358530045E0,5.804743767E-1,-6.958097219E-2,1.478984752E0
5.436585695E0,1.387510300E0,6.462092400E-1,-6.097817421E-2,1.531825562E0
5.441575747E0,1.399036884E0,7.542872429E-1,-2.654927969E-2,1.589640938E0
5.446480747E0,1.421612740E0,8.208007812E-1,4.916548729E-3,1.641560500E0
5.451431424E0,1.419643879E0,8.938827515E-1,1.934629679E-2,1.677733410E0
5.456415591E0,1.457789421E0,9.305510521E-1,1.210343838E-2,1.729514889E0
5.461399758E0,1.507098198E0,9.976477623E-1,1.188296080E-2,1.807425584E0
5.466358820E0,1.526738644E0,1.025679588E0,1.637399197E-2,1.839352498E0
5.471341789E0,1.552667141E0,1.021921635E0,-5.418837070E-3,1.858797580E0
5.476324653E0,1.589759350E0,1.039092541E0,-1.288855076E-2,1.899266757E0
5.481307570E0,1.587582111E0,1.041166782E0,-3.456109762E-2,1.898852206E0
5.486296893E0,1.594019890E0,1.092757702E0,-2.479159832E-2,1.932778680E0
5.491280122E0,1.594784260E0,1.146050453E0,1.415491104E-2,1.963916709E0
5.496263299E0,1.539693832E0,1.189105988E0,1.287186146E-2,1.945455173E0
5.501246528E0,1.526830673E0,1.260189056E0,5.522614717E-2,1.980489407E0
5.506243195E0,1.486721039E0,1.285081387E0,1.148806214E-1,1.968494647E0
5.511227049E0,1.479074001E0,1.337923527E0,1.921726465E-1,2.003654060E0
5.516211008E0,1.434600353E0,1.373312473E0,3.085489869E-1,2.009792974E0
5.521194914E0,1.360265255E0,1.388706207E0,4.283227921E-1,1.990549399E0
5.526210695E0,1.244391918E0,1.408210278E0,5.753097534E-1,1.965336802E0
5.531196216E0,1.130182743E0,1.381667614E0,7.062944770E-1,1.919679743E0
5.536181685E0,1.017817020E0,1.347550392E0,8.598194122E-1,1.895028487E0
5.541167205E0,9.051451683E-1,1.329967022E0,1.019207239E0,1.904437831E0
5.546140955E0,8.354225159E-1,1.240558624E0,1.189034462E0,1.910685592E0
5.551125851E0,8.207063675E-1,1.156054497E0,1.367000580E0,1.969444472E0
5.556110799E0,8.227734566E-1,1.031062126E0,1.521695733E0,2.013852818E0
5.561095695E0,8.465251923E-1,9.183249474E-1,1.650568962E0,2.069855915E0
5.566079289E0,8.607773781E-1,8.153610229E-1,1.808447361E0,2.162459976E0
5.571064133E0,8.607130051E-1,7.842798233E-1,1.983163357E0,2.299751860E0
5.576048976E0,9.061098099E-1,7.269215584E-1,2.114753008E0,2.412805467E0
5.581033820E0,9.466996193E-1,6.720027924E-1,2.279593468E0,2.558197471E0
5.586019705E0,1.058911324E0,5.716271400E-1,2.398782253E0,2.683692806E0
5.591004601E0,1.151577473E0,4.424390793E-1,2.477332830E0,2.767500852E0
5.595989497E0,1.267853737E0,2.415018082E-1,2.527270794E0,2.837758603E0
5.600974393E0,1.374114037E0,-1.921558380E-2,2.548915863E0,2.895778082E0
5.605997362E0,1.510750294E0,-3.039722443E-1,2.552018642E0,2.981201893E0
5.610984028E0,1.594199657E0,-5.743513107E-1,2.551023960E0,3.062527587E0
5.615970695E0,1.691542149E0,-8.661861420E-1,2.589225054E0,3.211803178E0
5.620957362E0,1.771773338E0,-1.121971607E0,2.650178432E0,3.379563104E0
5.625944080E0,1.775198936E0,-1.372810364E0,2.719342947E0,3.525729091E0
5.630866008E0,1.752233028E0,-1.523009777E0,2.856069088E0,3.680626306E0
5.635849862E0,1.664615631E0,-1.603783131E0,3.056165695E0,3.831868250E0
5.640833768E0,1.579686165E0,-1.626983643E0,3.275701523E0,3.984056302E0
5.645817622E0,1.452379227E0,-1.611535072E0,3.574212074E0,4.181081518E0
5.650806893E0,1.340364933E0,-1.588397503E0,3.824771643E0,4.352983218E0
5.655791060E0,1.262834549E0,-1.547958851E0,4.053550720E0,4.519092956E0
5.660775226E0,1.207942009E0,-1.523596764E0,4.274813652E0,4.696222179E0
5.665759341E0,1.187698841E0,-1.424366474E0,4.483507633E0,4.851936633E0
5.670748872E0,1.180376053E0,-1.362884998E0,4.722239971E0,5.054729814E0
5.675733299E0,1.238559723E0,-1.272152424E0,4.894975185E0,5.207032172E0
5.680717726E0,1.280687809E0,-1.152342796E0,5.049330711E0,5.335147216E0
5.685702153E0,1.332738400E0,-1.061139584E0,5.194816589E0,5.467021882E0
5.690686789E0,1.423091888E0,-9.796080589E-1,5.283421040E0,5.558719309E0
5.695671216E0,1.539480686E0,-9.270620346E-1,5.276766777E0,5.574380003E0
5.700655643E0,1.638445377E0,-8.870210648E-1,5.186792850E0,5.511272965E0
5.705640070E0,1.740972042E0,-8.694581985E-1,5.073416710E0,5.433829066E0
5.710615643E0,1.846590996E0,-8.890447617E-1,4.894001484E0,5.305803372E0
5.715599653E0,1.857037067E0,-8.813414574E-1,4.684698582E0,5.115833288E0
5.720583612E0,1.817655563E0,-9.278445244E-1,4.409821510E0,4.859145291E0
5.725567622E0,1.716588974E0,-9.495501518E-1,4.222709656E0,4.656135740E0
5.730569341E0,1.616092682E0,-9.608368874E-1,4.056605816E0,4.471131157E0
5.735554237E0,1.437323093E0,-9.999313354E-1,3.923784733E0,4.296725146E0
5.740539133E0,1.247549534E0,-9.853348732E-1,3.838958979E0,4.155101767E0
5.745523976E0,1.058994293E0,-9.719200134E-1,3.888588905E0,4.145747351E0
5.750507466E0,8.456530571E-1,-9.642410278E-1,3.962709188E0,4.165087510E0
5.755492258E0,6.268911362E-1,-9.525742531E-1,4.056333065E0,4.213576644E0
5.760477101E0,4.387965202E-1,-9.582824707E-1,4.226929188E0,4.356349164E0
5.765461893E0,2.552785873E-1,-9.644122124E-1,4.362024307E0,4.474652403E0
5.770436580E0,5.740594864E-2,-9.779753685E-1,4.497218609E0,4.602684704E0
5.775420903E0,-9.006738663E-2,-1.013172150E0,4.601275444E0,4.712363064E0
5.780405122E0,-2.015156746E-1,-1.024516106E0,4.647747517E0,4.763590956E0
5.785389445E0,-2.578153610E-1,-9.641785622E-1,4.653328896E0,4.759157370E0
5.790379341E0,-3.164453506E-1,-9.470467567E-1,4.670526981E0,4.776071346E0
5.795363872E0,-3.893628120E-1,-9.467644691E-1,4.670612335E0,4.781483655E0
5.800348455E0,-4.479579926E-1,-9.370942116E-1,4.636824608E0,4.751731723E0
5.805333039E0,-5.329833031E-1,-8.798599243E-1,4.640738964E0,4.753386458E0
5.810323195E0,-6.157369614E-1,-8.253588676E-1,4.644072056E0,4.756863938E0
5.815308091E0,-7.057909966E-1,-7.640299797E-1,4.624965668E0,4.740484170E0
5.820292883E0,-8.055977821E-1,-6.744203568E-1,4.568895817E0,4.688138179E0
5.825277726E0,-9.150338173E-1,-5.540838242E-1,4.578748226E0,4.702045416E0
5.830255955E0,-1.022195816E0,-4.557209015E-1,4.498789310E0,4.635911031E0
5.835240487E0,-1.158114433E0,-3.744769096E-1,4.424768448E0,4.589121682E0
5.840225018E0,-1.291615486E0,-2.648534775E-1,4.328051090E0,4.524427496E0
5.845209549E0,-1.389194965E0,-2.105550766E-1,4.201451302E0,4.430168070E0
5.850192466E0,-1.474889755E0,-1.470246315E-1,4.107666969E0,4.366903246E0
5.855176893E0,-1.558296680E0,-1.053771973E-1,3.922633648E0,4.222137804E0
5.860161372E0,-1.620321751E0,-8.322858810E-2,3.747066498E0,4.083243430E0
5.865145799E0,-1.613243103E0,-1.236667633E-1,3.528563023E0,3.881829953E0
5.870131737E0,-1.642437935E0,-1.310405731E-1,3.348719597E0,3.732116952E0
5.875116268E0,-1.647983551E0,-1.316118240E-1,3.099948406E0,3.513239471E0
5.880100799E0,-1.529471874E0,-1.253905296E-1,2.789144516E0,3.183446894E0
5.885085278E0,-1.375562668E0,-1.554636955E-1,2.499608278E0,2.857338475E0
5.890078612E0,-1.258303165E0,-2.411727905E-1,2.230892658E0,2.572619914E0
5.895063560E0,-1.153881073E0,-3.921594620E-1,2.093508959E0,2.422397642E0
5.900048508E0,-1.096289158E0,-5.514574051E-1,2.006681919E0,2.352175060E0
5.905033455E0,-1.145537853E0,-6.691303253E-1,1.952173352E0,2.360290906E0
5.910014705E0,-1.263149738E0,-7.666940689E-1,1.952052355E0,2.448239256E0
5.914999497E0,-1.391698360E0,-8.657693863E-1,1.987448096E0,2.576107702E0
5.919984237E0,-1.581254482E0,-9.303960800E-1,2.034361601E0,2.739457926E0
5.924969028E0,-1.802789211E0,-1.003444672E0,2.107306480E0,2.949184761E0
5.929945174E0,-2.008012772E0,-1.117996693E0,2.177677870E0,3.166119518E0
5.934929497E0,-2.156264782E0,-1.218996048E0,2.209737539E0,3.319392891E0
5.939913820E0,-2.283102989E0,-1.361106873E0,2.303974628E0,3.517594386E0
5.944898143E0,-2.374145985E0,-1.470110893E0,2.388447285E0,3.674571489E0
5.949900122E0,-2.477210999E0,-1.612975597E0,2.424804449E0,3.823341631E0
5.954885330E0,-2.563041687E0,-1.758034706E0,2.501024008E0,3.989359573E0
5.959870487E0,-2.660352707E0,-1.898112297E0,2.583118439E0,4.165670136E0
5.964855747E0,-2.745147705E0,-1.999666691E0,2.763930559E0,4.378791492E0
5.969825695E0,-2.845934391E0,-2.117526054E0,2.949941158E0,4.613611599E0
5.974810174E0,-2.986553669E0,-2.210957050E0,3.177089214E0,4.888939534E0
5.979794601E0,-3.111908436E0,-2.282313824E0,3.394914627E0,5.139880916E0
5.984779028E0,-3.250401974E0,-2.302576542E0,3.679675579E0,5.422820676E0
5.989775435E0,-3.368558645E0,-2.326792717E0,3.930312395E0,5.675253934E0
5.994760487E0,-3.523506880E0,-2.297209740E0,4.165290833E0,5.919621697E0
5.999745539E0,-3.638568163E0,-2.297411442E0,4.334012032E0,6.107449378E0
6.004730591E0,-3.732746840E0,-2.233850956E0,4.495890141E0,6.255918575E0
6.009711789E0,-3.758128881E0,-2.178148270E0,4.600036144E0,6.326783946E0
6.014696685E0,-3.788927317E0,-2.178061962E0,4.624925613E0,6.363164390E0
6.019681476E0,-3.762919188E0,-2.149722099E0,4.637145042E0,6.346966209E0
6.024666372E0,-3.711398363E0,-2.205669403E0,4.557977200E0,6.278105724E0
6.029651372E0,-3.689419508E0,-2.214283466E0,4.473728180E0,6.207182243E0
6.034636268E0,-3.692151308E0,-2.209063053E0,4.384512901E0,6.142954846E0
6.039621060E0,-3.681384802E0,-2.168594360E0,4.266943455E0,6.038393992E0
6.044605955E0,-3.659503698E0,-2.064197540E0,4.097587109E0,5.868824321E0
6.049582622E0,-3.657662630E0,-1.984494209E0,3.932108641E0,5.725224148E0
6.054567101E0,-3.647211313E0,-1.872147560E0,3.792380810E0,5.584732675E0
6.059551580E0,-3.606627226E0,-1.755877495E0,3.647586584E0,5.421785095E0
6.064536008E0,-3.543126345E0,-1.681125164E0,3.473991632E0,5.239135804E0
6.069531633E0,-3.430479527E0,-1.678977489E0,3.319691658E0,5.060386141E0
6.074516633E0,-3.345355511E0,-1.632274151E0,3.230056047E0,4.928385584E0
6.079501633E0,-3.218416214E0,-1.596121311E0,3.035542250E0,4.703224736E0
6.084486633E0,-3.064159393E0,-1.616057396E0,2.856153250E0,4.489802410E0
6.089466112E0,-2.918624401E0,-1.620436192E0,2.675140858E0,4.277915433E0
6.094450851E0,-2.777183533E0,-1.607080460E0,2.521345139E0,4.080764302E0
6.099435591E0,-2.642386436E0,-1.592946053E0,2.323242188E0,3.862271025E0
6.104420278E0,-2.454538822E0,-1.568581104E0,2.183912754E0,3.640698069E0
6.109405799E0,-2.304805756E0,-1.608395576E0,2.007664680E0,3.453951848E0
6.114390591E0,-2.083307266E0,-1.688590050E0,1.813823700E0,3.237508600E0
6.119375383E0,-1.904968262E0,-1.785272598E0,1.590644360E0,3.057164014E0
6.124360122E0,-1.700591087E0,-1.924950600E0,1.392894864E0,2.921917343E0
6.129343612E0,-1.472836494E0,-2.079148769E0,1.196467280E0,2.814896250E0
6.134328299E0,-1.257738113E0,-2.214520931E0,1.032158494E0,2.747973667E0
6.139313039E0,-1.103309155E0,-2.400673866E0,8.401594758E-1,2.772434679E0
6.144297726E0,-9.713263512E-1,-2.620923042E0,6.727341413E-1,2.874940643E0
6.149277310E0,-8.448948860E-1,-2.853556156E0,4.794810116E-1,3.014387524E0
6.154261737E0,-7.624821663E-1,-3.086842537E0,3.918970227E-1,3.203679007E0
6.159246164E0,-7.360019684E-1,-3.347094536E0,3.162409663E-1,3.441620124E0
6.164230643E0,-7.771453857E-1,-3.490577221E0,2.786799967E-1,3.586885394E0
6.169228976E0,-8.570446968E-1,-3.660808563E0,3.150199652E-1,3.772967337E0
6.174214080E0,-9.155621529E-1,-3.838265896E0,3.938220739E-1,3.965556073E0
6.179199237E0,-9.835462570E-1,-4.015461445E0,4.885834754E-1,4.162932580E0
6.184184393E0,-1.032058716E0,-4.249510288E0,5.607119799E-1,4.408841209E0
6.189162570E0,-1.027406216E0,-4.444418430E0,6.270222068E-1,4.604516865E0
6.194147362E0,-1.050891876E0,-4.595380783E0,6.708511114E-1,4.761506011E0
6.199132153E0,-1.097671509E0,-4.700023651E0,7.111916542E-1,4.878616467E0
6.204116945E0,-1.148453712E0,-4.770200253E0,7.763127685E-1,4.967536401E0
6.209098039E0,-1.212836266E0,-4.729471207E0,8.372854590E-1,4.953778017E0
6.214082622E0,-1.317070484E0,-4.601847172E0,9.225980043E-1,4.874716313E0
6.219067258E0,-1.444186687E0,-4.468536854E0,1.065660238E0,4.815509168E0
6.224051841E0,-1.531865120E0,-4.327034473E0,1.144567251E0,4.730736969E0
6.229038560E0,-1.601733208E0,-4.134383202E0,1.180796266E0,4.588349763E0
6.234023247E0,-1.672863960E0,-3.902527809E0,1.152842641E0,4.399686726E0
6.239007987E0,-1.735641479E0,-3.753433704E0,1.065614343E0,4.270392236E0
6.243992674E0,-1.768649578E0,-3.579514503E0,9.692237377E-1,4.108581271E0
6.248983299E0,-1.869728088E0,-3.390130997E0,8.805594444E-1,3.970422677E0
6.253968299E0,-1.964741230E0,-3.168673992E0,7.301995158E-1,3.799196534E0
6.258953299E0,-2.058381081E0,-2.900760174E0,6.210986376E-1,3.610693254E0
6.263938299E0,-2.229607105E0,-2.586538792E0,6.039656997E-1,3.467867548E0
6.268920383E0,-2.392122746E0,-2.254665852E0,5.808316469E-1,3.338133421E0
6.273905226E0,-2.514678955E0,-1.909791946E0,5.474823713E-1,3.204785870E0
6.278890122E0,-2.573267460E0,-1.602019787E0,5.572443604E-1,3.081995148E0
6.283874966E0,-2.567891121E0,-1.307332516E0,4.717926681E-1,2.919892367E0
6.288852830E0,-2.517675400E0,-1.037607193E0,3.294538260E-1,2.742965171E0
6.293837362E0,-2.432211399E0,-8.525929451E-1,1.755366027E-1,2.583288625E0
6.298821893E0,-2.328518867E0,-6.759476662E-1,1.246105880E-2,2.424677430E0
6.303806372E0,-2.216435432E0,-5.031609535E-1,-1.762247384E-1,2.279651756E0
6.308797830E0,-2.136804104E0,-3.870325089E-1,-3.396918178E-1,2.197980089E0
6.313782726E0,-2.077856064E0,-2.201161385E-1,-4.844798148E-1,2.144914364E0
6.318767570E0,-2.011096478E0,-1.944017410E-2,-6.366316080E-1,2.109546578E0
6.323752414E0,-1.991760254E0,1.453914642E-1,-8.005719185E-1,2.151548973E0
6.328732778E0,-1.912327290E0,2.934236526E-1,-9.616898894E-1,2.160541725E0
6.333717362E0,-1.854262829E0,4.054651260E-1,-1.081840277E0,2.184735909E0
6.338701997E0,-1.765062332E0,5.531725883E-1,-1.134847164E0,2.170097471E0
6.343686633E0,-1.640278816E0,6.453619003E-1,-1.087175369E0,2.070979686E0
6.348671268E0,-1.458549500E0,6.724386215E-1,-1.013087034E0,1.898916976E0
6.353655903E0,-1.287198067E0,6.533346176E-1,-8.936401606E-1,1.697739003E0
6.358640539E0,-1.155170441E0,6.141705513E-1,-7.769063115E-1,1.521580635E0
6.363625174E0,-1.007597923E0,5.500211716E-1,-6.946248412E-1,1.341745331E0
6.368611268E0,-8.779616356E-1,4.776692390E-1,-6.092249751E-1,1.170529626E0
6.373595955E0,-7.663240433E-1,4.066166878E-1,-5.523710251E-1,1.028447091E0
6.378580695E0,-6.701874733E-1,2.150015831E-1,-5.816855431E-1,9.130909052E-1
6.383565435E0,-5.705566406E-1,4.631900787E-2,-6.017183065E-1,8.305090313E-1
6.388546372E0,-4.698076248E-1,-1.568183899E-1,-6.176419258E-1,7.917024443E-1
6.393530903E0,-3.488316536E-1,-3.178439140E-1,-6.174036860E-1,7.771071920E-1
6.398515435E0,-3.059926033E-1,-4.514055252E-1,-5.795619488E-1,7.957954976E-1
6.403499966E0,-3.052954674E-1,-5.550994873E-1,-5.495696068E-1,8.386700876E-1
6.408498820E0,-3.585362434E-1,-6.073217392E-1,-4.889537692E-1,8.581746449E-1
6.413484080E0,-4.201884270E-1,-6.607108116E-1,-4.698020816E-1,9.131325679E-1
6.418469289E0,-4.733471870E-1,-7.079420090E-1,-4.993849695E-1,9.872308723E-1
6.423454549E0,-5.513873100E-1,-7.465252876E-1,-4.677666128E-1,1.039294749E0
6.428430278E0,-6.278839111E-1,-8.146424294E-1,-4.636315107E-1,1.128199748E0
6.433415070E0,-6.906065941E-1,-8.689670563E-1,-4.653640687E-1,1.203580047E0
6.438399810E0,-7.372860909E-1,-9.478554726E-1,-5.133634806E-1,1.305971990E0
6.443384601E0,-8.131380081E-1,-1.022374630E0,-5.263242722E-1,1.408353842E0
6.448371633E0,-8.916587830E-1,-1.066082954E0,-5.426453352E-1,1.491996049E0
6.453356528E0,-9.632067680E-1,-1.055043697E0,-5.049885511E-1,1.515222069E0
6.458341372E0,-1.032527924E0,-1.013200283E0,-3.822947145E-1,1.496274699E0
6.463326268E0,-1.080499172E0,-1.031457424E0,-2.677940726E-1,1.517595646E0
6.468305487E0,-1.116600513E0,-1.002043247E0,-8.507642895E-2,1.502706017E0
6.473290070E0,-1.198299885E0,-9.944252968E-1,6.999707222E-2,1.558750742E0
6.478274653E0,-1.265728951E0,-1.030076981E0,1.925104707E-1,1.643225074E0
6.483259237E0,-1.359273434E0,-9.963307381E-1,3.133831024E-1,1.714207740E0
6.488248403E0,-1.471758366E0,-9.746093750E-1,4.325430989E-1,1.817423906E0
6.493233195E0,-1.571800709E0,-9.646906853E-1,5.233190060E-1,1.917041567E0
6.498218039E0,-1.642468929E0,-9.329266548E-1,6.167103052E-1,1.987055089E0
6.503202830E0,-1.688585281E0,-8.937106133E-1,6.697770357E-1,2.024509864E0
6.508184289E0,-1.745975494E0,-8.470058441E-1,7.161026001E-1,2.068490334E0
6.513168976E0,-1.805149555E0,-7.737827301E-1,7.055853605E-1,2.086900892E0
6.518153612E0,-1.861077309E0,-7.336492538E-1,6.937528849E-1,2.117343392E0
6.523138299E0,-1.868360043E0,-6.739788055E-1,6.188551188E-1,2.080384180E0
6.528127935E0,-1.867849827E0,-5.686082840E-1,5.338599682E-1,2.024150395E0
6.533112830E0,-1.859464645E0,-4.940056801E-1,4.323125184E-1,1.971939272E0
6.538097726E0,-1.800316811E0,-4.143633842E-1,2.380600870E-1,1.862662137E0
6.543082674E0,-1.702534199E0,-3.608417511E-1,6.153112650E-2,1.741440653E0
6.548067362E0,-1.628439426E0,-2.641234398E-1,-1.233401895E-1,1.654324321E0
6.553052258E0,-1.566236019E0,-2.439446449E-1,-3.210111260E-1,1.617297870E0
6.558037153E0,-1.477797508E0,-2.309422493E-1,-5.071467161E-1,1.579372530E0
6.563022049E0,-1.432463646E0,-1.819958687E-1,-6.766794920E-1,1.594669159E0
6.568004133E0,-1.351408958E0,-1.570158005E-1,-8.414608836E-1,1.599692643E0
6.572988924E0,-1.251395702E0,-9.614038467E-2,-1.029946685E0,1.623583799E0
6.577973664E0,-1.173065662E0,-3.285932541E-2,-1.213510036E0,1.688126000E0
6.582958403E0,-1.097269535E0,2.325010300E-2,-1.330153942E0,1.724485578E0
6.587938872E0,-1.016703606E0,4.119729996E-2,-1.442403078E0,1.765194063E0
6.592923351E0,-9.097795486E-1,3.781747818E-2,-1.536065221E0,1.785672241E0
6.597907883E0,-8.434786797E-1,3.941965103E-2,-1.632995486E0,1.838391811E0
6.602892466E0,-7.340025902E-1,4.602050781E-2,-1.652128935E0,1.808426860E0
6.607877518E0,-6.841907501E-1,5.284595490E-2,-1.624807596E0,1.763777027E0
6.612862049E0,-6.030836105E-1,8.380365372E-2,-1.601496935E0,1.713337482E0
6.617846633E0,-5.386147499E-1,1.100902557E-1,-1.548977137E0,1.643641044E0
6.622831164E0,-4.787268639E-1,1.580781937E-1,-1.450506091E0,1.535622364E0
6.627828143E0,-4.354486465E-1,2.539730072E-1,-1.363638878E0,1.453832453E0
6.632813299E0,-4.373950958E-1,3.068790436E-1,-1.257429123E0,1.366242005E0
6.637798508E0,-3.623952866E-1,3.671622276E-1,-1.153675079E0,1.263766052E0
6.642783716E0,-2.561216354E-1,4.514446259E-1,-1.040377736E0,1.162663484E0
6.647760226E0,-1.689143181E-1,4.711489677E-1,-9.415369034E-1,1.066304430E0
6.652744966E0,-7.461643219E-2,4.764447212E-1,-8.810223341E-1,1.004374202E0
6.657729758E0,9.974956512E-3,5.390558243E-1,-8.085047007E-1,9.717821425E-1
6.662714497E0,1.230559349E-1,5.727930069E-1,-7.357153893E-1,9.404848355E-1
6.667701112E0,2.955403328E-1,6.182494164E-1,-7.223628163E-1,9.956829152E-1
6.672685955E0,4.123420715E-1,6.513381004E-1,-6.893697977E-1,1.034165375E0
6.677670799E0,5.356788635E-1,6.768240929E-1,-6.800500751E-1,1.098867964E0
6.682655643E0,6.151704788E-1,7.089457512E-1,-6.514531374E-1,1.142554150E0
6.687644133E0,7.105660439E-1,7.572002411E-1,-6.203730702E-1,1.209594583E0
6.692629133E0,7.953972816E-1,8.119039536E-1,-5.748758316E-1,1.273706044E0
6.697614185E0,8.338136673E-1,8.419723511E-1,-5.699853897E-1,1.314931944E0
6.702599237E0,8.497724533E-1,9.024343491E-1,-5.529937744E-1,1.357314662E0
6.707569393E0,8.672747612E-1,9.454712868E-1,-5.120427608E-1,1.381401192E0
6.712553664E0,9.174685478E-1,9.926781654E-1,-4.973641038E-1,1.440322717E0
6.717537987E0,9.859876633E-1,9.962382317E-1,-5.185713172E-1,1.494516142E0
6.722522205E0,1.046568871E0,1.011240005E0,-5.375261307E-1,1.551401654E0
6.727499497E0,1.082252026E0,9.897055626E-1,-5.180906057E-1,1.555379190E0
6.732483455E0,1.131518364E0,9.533376694E-1,-4.890410304E-1,1.558315645E0
6.737467362E0,1.182473660E0,9.213376045E-1,-4.958826303E-1,1.578925749E0
6.742451268E0,1.242210388E0,8.697395325E-1,-4.571992159E-1,1.583844887E0
6.747446893E0,1.313037872E0,8.702483177E-1,-3.875021935E-1,1.622207921E0
6.752431424E0,1.320765018E0,8.510456085E-1,-3.320611417E-1,1.605915148E0
6.757415903E0,1.325344086E0,8.337497711E-1,-3.266470730E-1,1.599491774E0
6.762400435E0,1.338939190E0,7.874336243E-1,-2.896772921E-1,1.580102149E0
6.767386476E0,1.387799263E0,7.599277496E-1,-2.546659410E-1,1.602601548E0
6.772371008E0,1.462478638E0,6.604614258E-1,-1.809010506E-1,1.614861682E0
6.777355643E0,1.515122414E0,6.062932014E-1,-1.306005716E-1,1.637145041E0
6.782340174E0,1.629404545E0,5.447325706E-1,-8.935701847E-2,1.720371303E0
6.787338143E0,1.719123363E0,5.140314102E-1,-3.302931786E-2,1.794632098E0
6.792323403E0,1.834520340E0,4.591412544E-1,9.553670883E-3,1.891128457E0
6.797308664E0,1.932549953E0,3.753213882E-1,2.874940634E-2,1.968868202E0
6.802293924E0,2.003598690E0,2.864518166E-1,7.935106754E-2,2.025526832E0
6.807282883E0,2.064368248E0,2.522730827E-1,1.518244147E-1,2.085259846E0
6.812268299E0,2.126800060E0,2.774696350E-1,2.627620101E-1,2.160859035E0
6.817253768E0,2.190728664E0,2.781405449E-1,3.114302754E-1,2.230166599E0
6.822239237E0,2.177200317E0,2.781953812E-1,4.389575124E-1,2.238364937E0
6.827206528E0,2.167546272E0,2.847461700E-1,5.637552142E-1,2.257688456E0
6.832191060E0,2.171219349E0,3.048601151E-1,7.022463083E-1,2.302234356E0
6.837175591E0,2.094832420E0,3.432159424E-1,8.352108002E-1,2.281161356E0
6.842160122E0,1.995861053E0,4.308562279E-1,9.529836774E-1,2.253281235E0
6.847135591E0,1.898181438E0,5.030984879E-1,1.108062625E0,2.254773524E0
6.852119601E0,1.715841293E0,5.624413490E-1,1.221483946E0,2.180017120E0
6.857103716E0,1.525638580E0,6.281552315E-1,1.329222441E0,2.118722344E0
6.862087778E0,1.370746136E0,6.453104019E-1,1.426452756E0,2.080898351E0
6.867101060E0,1.179599762E0,6.715078354E-1,1.496427298E0,2.020315081E0
6.872086633E0,1.038427353E0,6.900758743E-1,1.611087441E0,2.037188951E0
6.877072153E0,9.089612961E-1,6.771378517E-1,1.688897371E0,2.033986391E0
6.882057674E0,7.603931427E-1,6.975049973E-1,1.772964597E0,2.051368912E0
6.887045174E0,6.262817383E-1,6.483716965E-1,1.911352634E0,2.113263724E0
6.892030799E0,5.162868500E-1,5.442638397E-1,1.967849731E0,2.105993306E0
6.897016424E0,4.760937691E-1,3.758983612E-1,2.021533012E0,2.110582994E0
6.902002101E0,4.819016457E-1,7.416200638E-2,2.029377699E0,2.087127941E0
6.906964393E0,5.315046310E-1,-2.912287712E-1,2.061099291E0,2.148357898E0
6.911948820E0,5.768241882E-1,-6.916360855E-1,2.018733025E0,2.210513434E0
6.916933351E0,6.586017609E-1,-1.026515007E0,1.993268490E0,2.336794516E0
6.921917778E0,6.980733871E-1,-1.372301579E0,2.032752991E0,2.550020156E0
6.926924341E0,7.359619141E-1,-1.595038891E0,2.053632975E0,2.702442857E0
6.931909914E0,7.534122467E-1,-1.795097351E0,2.087068081E0,2.854094898E0
6.936895487E0,7.959499359E-1,-1.948535919E0,2.164150238E0,3.018919473E0
6.941881060E0,8.493404388E-1,-2.103125572E0,2.299103498E0,3.229611935E0
6.946857258E0,9.566702843E-1,-2.184669971E0,2.427594185E0,3.403118341E0
6.951842362E0,1.010067463E0,-2.164721966E0,2.575829744E0,3.512998198E0
6.956827518E0,1.090926170E0,-2.115128040E0,2.712614059E0,3.608623224E0
6.961812622E0,1.117792606E0,-1.957119465E0,2.766024113E0,3.568005928E0
6.966804653E0,1.138583660E0,-1.764980316E0,2.840792656E0,3.532935208E0
6.971790122E0,1.177184105E0,-1.548368454E0,2.895921230E0,3.488490656E0
6.976775591E0,1.221470833E0,-1.240482807E0,2.916873693E0,3.396901637E0
6.981761008E0,1.259294033E0,-8.966002464E-1,2.941650391E0,3.323104044E0
6.986738247E0,1.321343422E0,-5.290541649E-1,2.955524683E0,3.280392187E0
6.991723299E0,1.373847008E0,-1.309137344E-1,2.975079298E0,3.279586992E0
6.996708351E0,1.390226841E0,2.616720200E-1,3.007102013E0,3.323231173E0
7.001693403E0,1.410799503E0,6.197252274E-1,2.951138496E0,3.329209068E0
7.006662101E0,1.408985138E0,9.550356865E-1,2.922063828E0,3.381684387E0
7.011646320E0,1.425180435E0,1.178936481E0,2.836112022E0,3.385935898E0
7.016630539E0,1.471224785E0,1.265191555E0,2.688678503E0,3.315750915E0
7.021614758E0,1.582751274E0,1.275989056E0,2.506189823E0,3.227109712E0
7.026601528E0,1.658946514E0,1.156208992E0,2.267442226E0,3.038127222E0
7.031585903E0,1.702045441E0,9.871821404E-1,2.039859772E0,2.834169217E0
7.036570226E0,1.762093067E0,8.142538071E-1,1.799825191E0,2.647140336E0
7.041554601E0,1.743333817E0,6.684665680E-1,1.607524872E0,2.463776890E0
7.046538872E0,1.650729179E0,5.235514641E-1,1.465546846E0,2.268664920E0
7.051523247E0,1.534801960E0,4.083890915E-1,1.355155230E0,2.087784568E0
7.056507622E0,1.429244041E0,2.513751984E-1,1.276724219E0,1.932861286E0
7.061491997E0,1.319935322E0,8.625602722E-2,1.166113019E0,1.763374302E0
7.066492778E0,1.206950665E0,-1.107831001E-1,1.050086975E0,1.603647548E0
7.071477883E0,1.145704269E0,-3.489232063E-1,9.480794072E-1,1.527494759E0
7.076463143E0,1.126546383E0,-5.491886139E-1,8.197424412E-1,1.497562204E0
7.081448299E0,1.063507080E0,-7.138605118E-1,7.012943625E-1,1.460293780E0
7.086409445E0,1.004688263E0,-8.140864372E-1,5.690804720E-1,1.412794329E0
7.091393508E0,9.809679985E-1,-8.596930504E-1,4.301580191E-1,1.373465062E0
7.096377466E0,9.638781548E-1,-8.625111580E-1,2.891777158E-1,1.325371777E0
7.101361476E0,9.917860031E-1,-8.464274406E-1,2.034692764E-1,1.319650952E0
7.106344810E0,9.974842072E-1,-7.996802330E-1,1.419053078E-1,1.286312689E0
7.111328820E0,9.739561081E-1,-7.318243980E-1,1.423141360E-1,1.226544236E0
7.116312778E0,9.092078209E-1,-6.190900803E-1,1.755435467E-1,1.113888202E0
7.121296737E0,8.367452621E-1,-4.807229042E-1,2.771614790E-1,1.004019736E0
7.126290591E0,7.445793152E-1,-3.096785545E-1,4.298998713E-1,9.138452074E-1
7.131275070E0,6.162314415E-1,-1.991300583E-1,5.804935098E-1,8.696934428E-1
7.136259549E0,4.564132690E-1,-5.827665329E-2,7.740442157E-1,9.004741464E-1
7.141243976E0,3.371534348E-1,8.669853210E-2,9.693313837E-1,1.029947768E0
7.146218091E0,2.083668709E-1,1.689400673E-1,1.156236887E0,1.186946182E0
7.151202049E0,7.945775986E-2,2.529201508E-1,1.320202351E0,1.346557234E0
7.156185955E0,-5.183935165E-2,3.506646156E-1,1.477591515E0,1.519516263E0
7.161169914E0,-1.806344986E-1,4.072155952E-1,1.632776737E0,1.692457750E0
7.166190591E0,-3.023872375E-1,4.367613792E-1,1.790548444E0,1.867689019E0
7.171176372E0,-3.710660934E-1,4.302949905E-1,1.890933990E0,1.974455667E0
7.176162205E0,-4.538798332E-1,4.331135750E-1,1.957732320E0,2.055799141E0
7.181147987E0,-5.101943016E-1,3.877906799E-1,1.974323869E0,2.075725072E0
7.186113247E0,-5.352931023E-1,3.278446198E-1,1.924201727E0,2.023999280E0
7.191097987E0,-5.604391098E-1,3.344764709E-1,1.857815742E0,1.969123114E0
7.196082778E0,-5.856246948E-1,2.952442169E-1,1.734908819E0,1.854732876E0
7.201067570E0,-5.870819092E-1,2.770514488E-1,1.598994493E0,1.725747972E0
7.206053664E0,-6.056380272E-1,2.654252052E-1,1.429125428E0,1.574689636E0
7.211038508E0,-6.483979225E-1,1.982455254E-1,1.266301632E0,1.436398614E0
7.216023299E0,-7.201590538E-1,1.544632912E-1,1.117951870E0,1.338769717E0
7.221008143E0,-7.682881355E-1,1.268773079E-1,9.771084785E-1,1.249442071E0
7.225993976E0,-8.430418968E-1,1.226787567E-1,8.443611264E-1,1.199464643E0
7.230978820E0,-8.535494804E-1,9.161710739E-2,7.702161074E-1,1.153331376E0
7.235963716E0,-8.811950684E-1,6.003093719E-2,6.351873875E-1,1.087920714E0
7.240948612E0,-9.260034561E-1,7.812929153E-2,5.450091362E-1,1.077321468E0
7.245942153E0,-9.186630249E-1,3.337335587E-2,4.803060889E-1,1.037183433E0
7.250927466E0,-9.237499237E-1,-3.823137283E-2,3.886261582E-1,1.002898724E0
7.255912778E0,-9.175209999E-1,-1.392397881E-1,3.155013323E-1,9.801905909E-1
7.260898091E0,-9.527158737E-1,-2.147526741E-1,2.705746293E-1,1.013408544E0
7.265872101E0,-1.019579887E0,-3.101038933E-1,2.921932936E-1,1.105026919E0
7.270856841E0,-1.072790146E0,-4.087343216E-1,3.274895549E-1,1.193813994E0
7.275841633E0,-1.174437523E0,-5.057954788E-1,3.333074450E-1,1.321448605E0
7.280826320E0,-1.321822643E0,-6.225957870E-1,4.290050864E-1,1.522788882E0
7.285798039E0,-1.430959702E0,-7.732572556E-1,5.089086890E-1,1.704277121E0
7.290782153E0,-1.566453457E0,-9.601602554E-1,5.680403113E-1,1.923110487E0
7.295766216E0,-1.675405979E0,-1.101714134E0,6.467605829E-1,2.106907326E0
7.300750278E0,-1.788740635E0,-1.221710682E0,7.637794614E-1,2.296852001E0
7.305850278E0,-1.921669960E0,-1.316384792E0,8.330549002E-1,2.473795631E0
7.310864185E0,-2.041377544E0,-1.386271954E0,9.089468122E-1,2.629668518E0
7.315855174E0,-2.141069889E0,-1.467658997E0,9.795508385E-1,2.774477076E0
7.320846164E0,-2.259216309E0,-1.565505028E0,1.021016002E0,2.932121757E0
7.325751164E0,-2.332942009E0,-1.731597900E0,1.030636311E0,3.082735946E0
7.330684341E0,-2.413198948E0,-1.870944023E0,1.006535530E0,3.215132108E0
7.335668455E0,-2.502650261E0,-1.998248577E0,9.894291759E-1,3.351898835E0
7.340652518E0,-2.596031189E0,-2.048387527E0,1.007896185E0,3.457039791E0
7.345627674E0,-2.707592487E0,-2.047648907E0,9.946677089E-1,3.537412469E0
7.350611320E0,-2.810969830E0,-2.058192253E0,1.045455813E0,3.637400802E0
7.355594966E0,-2.946719646E0,-2.022464752E0,1.109867096E0,3.742368945E0
7.360578612E0,-3.014265537E0,-2.004934311E0,1.185343027E0,3.809277676E0
7.365564445E0,-3.114194870E0,-1.933897495E0,1.271929979E0,3.880202969E0
7.370548195E0,-3.196258068E0,-1.907437325E0,1.340920448E0,3.956317787E0
7.375531945E0,-3.291567802E0,-1.903951645E0,1.351722240E0,4.035666423E0
7.380515695E0,-3.352218628E0,-1.930460930E0,1.342787623E0,4.094768337E0
7.385497726E0,-3.392678261E0,-1.967860699E0,1.287961602E0,4.128145661E0
7.390481372E0,-3.408253193E0,-2.037716866E0,1.196848392E0,4.147399899E0
7.395465070E0,-3.420493126E0,-2.173439026E0,1.016896605E0,4.178239956E0
7.400448716E0,-3.417358398E0,-2.326967239E0,8.368249536E-1,4.218221303E0
7.405431320E0,-3.396525860E0,-2.493514061E0,6.903572083E-1,4.269729894E0
7.410414862E0,-3.396315098E0,-2.680265903E0,5.368154645E-1,4.359696366E0
7.415398508E0,-3.416686535E0,-2.908647537E0,3.598181009E-1,4.501493801E0
7.420382101E0,-3.428922653E0,-3.118800640E0,2.144739628E-1,4.640089124E0
7.425382414E0,-3.461824894E0,-3.349100590E0,3.167319298E-2,4.816815291E0
7.430366841E0,-3.484096527E0,-3.513145447E0,-1.237947941E-1,4.949388315E0
7.435351268E0,-3.514901638E0,-3.656461716E0,-2.112720311E-1,5.076305908E0
7.440335747E0,-3.565972805E0,-3.793113708E0,-2.883192599E-1,5.214115615E0
7.445316997E0,-3.589345932E0,-3.942048550E0,-3.045702279E-1,5.340029402E0
7.450301268E0,-3.625666142E0,-4.079273224E0,-3.223419785E-1,5.467159167E0
7.455285591E0,-3.684451103E0,-4.247794151E0,-3.201931715E-1,5.632180639E0
7.460269862E0,-3.741635799E0,-4.363702774E0,-3.269260526E-1,5.757483912E0
7.465259185E0,-3.782771111E0,-4.455601692E0,-2.970190644E-1,5.852346883E0
7.470243768E0,-3.812437534E0,-4.539957047E0,-2.881140709E-1,5.935393808E0
7.475228299E0,-3.806804657E0,-4.667079926E0,-2.521840036E-1,6.028017377E0
7.480212830E0,-3.777808189E0,-4.769890785E0,-2.300223708E-1,6.089056011E0
7.485190018E0,-3.687195301E0,-4.872304440E0,-1.545410901E-1,6.112171683E0
7.490174185E0,-3.563747883E0,-5.012629986E0,-1.073207855E-1,6.151282476E0
7.495158351E0,-3.460139275E0,-5.138278484E0,-3.335210681E-2,6.194802817E0
7.500142518E0,-3.383715630E0,-5.237631798E0,8.382299542E-2,6.236132183E0
7.505121789E0,-3.344122410E0,-5.275050640E0,1.555190682E-1,6.247679580E0
7.510105695E0,-3.293428898E0,-5.272095680E0,2.508213520E-1,6.221300356E0
7.515089653E0,-3.312999249E0,-5.233709335E0,3.384064138E-1,6.203401996E0
7.520073612E0,-3.345403671E0,-5.162432194E0,4.921903610E-1,6.171278897E0
7.525070747E0,-3.397627831E0,-5.113104820E0,5.685465336E-1,6.165302988E0
7.530055278E0,-3.407509804E0,-5.107300758E0,6.537340879E-1,6.174383561E0
7.535039914E0,-3.439429760E0,-5.087289333E0,7.026302814E-1,6.180928664E0
7.540024497E0,-3.474275589E0,-5.053194523E0,7.417256832E-1,6.177015683E0
7.545011476E0,-3.530879021E0,-4.980796814E0,7.757228613E-1,6.154444696E0
7.549996216E0,-3.630659103E0,-4.786422253E0,8.691678643E-1,6.070171026E0
7.554980851E0,-3.723299503E0,-4.470247269E0,1.009843588E0,5.904731485E0
7.559965591E0,-3.885102987E0,-4.017861843E0,1.259998560E0,5.729296238E0
7.564951008E0,-4.036938667E0,-3.505872726E0,1.559864283E0,5.569667311E0
7.569935747E0,-4.145247459E0,-2.951074600E0,1.916531801E0,5.437371786E0
7.574920487E0,-4.116746902E0,-2.432450771E0,2.260240316E0,5.288960966E0
7.579905226E0,-4.068905830E0,-1.864132881E0,2.638998270E0,5.195699946E0
7.584895695E0,-3.939792395E0,-1.349364281E0,2.983440161E0,5.122856944E0
7.589880747E0,-3.806363344E0,-9.124794006E-1,3.245738029E0,5.084863412E0
7.594865695E0,-3.609044313E0,-6.015119553E-1,3.449976444E0,5.028852250E0
7.599850747E0,-3.364868402E0,-4.190096855E-1,3.584265947E0,4.934052175E0
7.604837830E0,-3.002182007E0,-3.720798492E-1,3.674669504E0,4.759699169E0
7.609822987E0,-2.564612389E0,-4.634866714E-1,3.570348024E0,4.420344061E0
7.614808091E0,-2.107741833E0,-5.597209930E-1,3.452885389E0,4.083905084E0
7.619793247E0,-1.639407635E0,-6.758093834E-1,3.272026300E0,3.721630265E0
7.624767987E0,-1.234196186E0,-7.906517982E-1,3.053915024E0,3.387442614E0
7.629752622E0,-9.138650894E-1,-8.638901711E-1,2.803012133E0,3.072186948E0
7.634737205E0,-6.907629967E-1,-8.984255791E-1,2.497621298E0,2.742705632E0
7.639721841E0,-5.459737778E-1,-8.921790123E-1,2.147401571E0,2.388598808E0
7.644705695E0,-4.818463326E-1,-8.786544800E-1,1.795571208E0,2.056279540E0
7.649690226E0,-4.982018471E-1,-8.242268562E-1,1.397126317E0,1.696913945E0
7.654674810E0,-5.207433701E-1,-7.885856628E-1,9.644587636E-1,1.350267274E0
7.659659393E0,-5.133919716E-1,-7.786273956E-1,4.977894425E-1,1.057178446E0
7.664647049E0,-5.095047951E-1,-7.988967896E-1,3.575554490E-2,9.482139398E-1
7.669631789E0,-4.898419380E-1,-8.539953232E-1,-4.310383201E-1,1.074731208E0
7.674616476E0,-4.805827141E-1,-9.054412842E-1,-8.402060270E-1,1.325416852E0
7.679601268E0,-4.360384941E-1,-9.027647972E-1,-1.251258254E0,1.603359307E0
7.684581997E0,-4.015007019E-1,-8.601841927E-1,-1.640118241E0,1.895021769E0
7.689566528E0,-3.575410843E-1,-8.037676811E-1,-2.001765251E0,2.186536584E0
7.694551060E0,-2.944822311E-1,-6.784143448E-1,-2.269197464E0,2.386676128E0
7.699535591E0,-1.859760284E-1,-5.486998558E-1,-2.444816828E0,2.512526206E0
7.704522570E0,-9.429693222E-2,-4.122495651E-1,-2.521068573E0,2.556291917E0
7.709507205E0,4.751110077E-2,-3.718910217E-1,-2.581543684E0,2.608625697E0
7.714491893E0,1.964216232E-1,-3.174338341E-1,-2.554464579E0,2.581595432E0
7.719476528E0,3.164076805E-1,-2.824931145E-1,-2.451924562E0,2.488342870E0
7.724453247E0,4.528017044E-1,-2.910618782E-1,-2.245348454E0,2.308968618E0
7.729437518E0,5.673136711E-1,-2.594037056E-1,-1.923202395E0,2.021841373E0
7.734421789E0,6.693682671E-1,-2.283444405E-1,-1.478442669E0,1.638898345E0
7.739406008E0,7.899999619E-1,-1.859798431E-1,-1.064534545E0,1.338626998E0
7.744403143E0,8.718967438E-1,-1.202859879E-1,-5.908036828E-1,1.060057377E0
7.749387987E0,9.219741821E-1,-4.111003876E-2,-7.226654887E-2,9.257153352E-1
7.754372935E0,9.356350899E-1,5.403280258E-2,3.710095286E-1,1.007958648E0
7.759357830E0,9.726696014E-1,1.603126526E-1,7.866453528E-1,1.261188809E0
7.764336216E0,9.899764061E-1,2.920327187E-1,1.169412494E0,1.559763435E0
7.769320747E0,9.734349251E-1,4.540786743E-1,1.540246725E0,1.877797372E0
7.774305330E0,9.851970673E-1,6.487493515E-1,1.834267497E0,2.180831546E0
7.779289862E0,1.030159950E0,8.091535568E-1,1.996349216E0,2.387754006E0
7.784281216E0,1.067590714E0,9.663662910E-1,2.078836679E0,2.528868458E0
7.789266112E0,1.106835842E0,1.079572201E0,2.127309084E0,2.629829967E0
7.794251008E0,1.138326168E0,1.187076569E0,2.089167118E0,2.658863760E0
7.799235955E0,1.159603596E0,1.296021461E0,2.051033020E0,2.689068347E0
7.804218508E0,1.160947323E0,1.449331284E0,1.955698252E0,2.696871430E0
7.809203299E0,1.192699909E0,1.577684402E0,1.800991416E0,2.674918920E0
7.814188091E0,1.214167118E0,1.693082333E0,1.596943259E0,2.625063304E0
7.819172883E0,1.222691536E0,1.781028271E0,1.370334148E0,2.558290830E0
7.824152518E0,1.218365192E0,1.896636486E0,1.128742218E0,2.521051903E0
7.829137049E0,1.210716248E0,1.996821880E0,9.107351899E-1,2.506505544E0
7.834121580E0,1.237961292E0,2.074440002E0,6.999103427E-1,2.515099197E0
7.839106112E0,1.218693256E0,2.131906986E0,4.894244671E-1,2.503952268E0
7.844100487E0,1.248641968E0,2.157355785E0,2.604902387E-1,2.506221441E0
7.849085487E0,1.246311665E0,2.167515278E0,6.837135553E-2,2.501217681E0
7.854070487E0,1.257241726E0,2.191174984E0,-1.107984781E-1,2.528671760E0
7.859055539E0,1.286113739E0,2.211541176E0,-2.268443108E-1,2.568357698E0
7.864027830E0,1.330651283E0,2.211992741E0,-3.443736434E-1,2.604253814E0
7.869012258E0,1.378888130E0,2.202143669E0,-4.538005590E-1,2.637556476E0
7.873996633E0,1.411662579E0,2.177243710E0,-5.382349491E-1,2.650071370E0
7.878981008E0,1.412268639E0,2.132531166E0,-6.672430038E-1,2.643370029E0
7.883973716E0,1.462200642E0,2.115960598E0,-7.715331912E-1,2.685252955E0
7.888958508E0,1.530375957E0,2.089288712E0,-8.869955540E-1,2.737505983E0
7.893943351E0,1.578385353E0,2.061992168E0,-9.732317924E-1,2.773137600E0
7.898928091E0,1.678068161E0,2.022181034E0,-1.039777517E0,2.825998261E0
7.903913716E0,1.762449741E0,1.984244347E0,-1.177620530E0,2.903488390E0
7.908898560E0,1.810102463E0,1.967343330E0,-1.319876313E0,2.981439952E0
7.913883351E0,1.890378952E0,1.880566120E0,-1.456981421E0,3.038561563E0
7.918868247E0,1.955459595E0,1.812512398E0,-1.584135532E0,3.101372084E0
7.923850383E0,2.029385567E0,1.753667355E0,-1.682230949E0,3.166015783E0
7.928835070E0,2.090491772E0,1.718286514E0,-1.748913288E0,3.222012117E0
7.933819810E0,2.121956825E0,1.713476181E0,-1.829499245E0,3.284169435E0
7.938804497E0,2.152588844E0,1.734486103E0,-1.852106452E0,3.327518457E0
7.943787414E0,2.196751595E0,1.752598286E0,-1.914895177E0,3.400609042E0
7.948771997E0,2.261505604E0,1.731935024E0,-1.964921474E0,3.460480158E0
7.953756633E0,2.291898727E0,1.670186996E0,-2.014263153E0,3.478445117E0
7.958741216E0,2.321492195E0,1.610550880E0,-2.050483465E0,3.491086162E0
7.963731841E0,2.388339520E0,1.569643021E0,-2.087909460E0,3.539394127E0
7.968716737E0,2.449220657E0,1.556957245E0,-2.056994438E0,3.557249472E0
7.973701685E0,2.449085712E0,1.560459614E0,-2.020066500E0,3.537474197E0
7.978686580E0,2.438119888E0,1.532253742E0,-2.032053947E0,3.524411066E0
7.983681737E0,2.418711662E0,1.532202244E0,-2.001705408E0,3.493513183E0
7.988667153E0,2.345459938E0,1.457460403E0,-1.919536829E0,3.363033569E0
7.993652570E0,2.283178329E0,1.406285763E0,-1.847743988E0,3.256485955E0
7.998637987E0,2.200736046E0,1.340394974E0,-1.774209261E0,3.128532616E0
8.003615955E0,2.088807583E0,1.291005135E0,-1.701466680E0,2.987440416E0
8.008601008E0,2.005065441E0,1.174565792E0,-1.564916015E0,2.801580689E0
8.013586060E0,1.947376251E0,1.027173996E0,-1.396006703E0,2.606951361E0
8.018571060E0,1.891914368E0,8.728656769E-1,-1.225800753E0,2.417399832E0
8.023535851E0,1.807714462E0,7.428007126E-1,-1.011345267E0,2.200546233E0
8.028519862E0,1.730627537E0,5.771241188E-1,-7.551452518E-1,1.974433658E0
8.033503872E0,1.696859837E0,4.932689667E-1,-5.314068794E-1,1.845275278E0
8.038487935E0,1.718342781E0,4.122304916E-1,-2.684243917E-1,1.787368889E0
8.043489133E0,1.744735718E0,3.028612137E-1,1.454353333E-4,1.770826830E0
8.048473976E0,1.826306820E0,2.130317688E-1,1.641398668E-1,1.846001363E0
8.053458872E0,1.914916515E0,1.281929016E-1,3.503381014E-1,1.950916571E0
8.058443768E0,1.952830315E0,5.290889740E-2,5.803250074E-1,2.037921172E0
8.063427518E0,2.038333893E0,8.790969849E-3,7.200561762E-1,2.161796299E0
8.068412310E0,2.094496250E0,2.740859985E-3,8.366256952E-1,2.255407858E0
8.073397153E0,2.121290207E0,-4.905033112E-2,9.299255610E-1,2.316687209E0
8.078381997E0,2.130732536E0,-7.722091675E-2,1.018778563E0,2.363026443E0
8.083481997E0,2.141723633E0,-7.002162933E-2,1.093603492E0,2.405795450E0
8.088579862E0,2.139994144E0,-2.751445770E-2,1.170697451E0,2.439439383E0
8.093575591E0,2.147368908E0,-1.180076599E-2,1.218431950E0,2.468989449E0
8.098571372E0,2.115828514E0,-1.426696777E-3,1.253765225E0,2.459402280E0
8.103476372E0,2.083891392E0,-1.062870026E-1,1.300284505E0,2.458584970E0
8.108381372E0,2.080203533E0,-2.688903809E-1,1.274238825E0,2.454227650E0
8.113286372E0,2.128752708E0,-4.746990204E-1,1.214279532E0,2.496277636E0
8.118245955E0,2.174536705E0,-7.642297745E-1,1.197259426E0,2.597323076E0
8.123245122E0,2.231849194E0,-1.053699493E0,1.177888751E0,2.734749596E0
8.128228247E0,2.272174835E0,-1.316679001E0,1.180039048E0,2.879047452E0
8.133211372E0,2.293298244E0,-1.565017700E0,1.196766257E0,3.023366785E0
8.138194549E0,2.364905834E0,-1.822402000E0,1.261695504E0,3.241265833E0
8.143179914E0,2.456103802E0,-2.064703941E0,1.296033502E0,3.460513125E0
8.148163143E0,2.571712017E0,-2.327755928E0,1.345328927E0,3.720491941E0
8.153146372E0,2.735830307E0,-2.537257195E0,1.438194633E0,3.998855504E0
8.158129601E0,2.943518639E0,-2.700520515E0,1.524288058E0,4.275577986E0
8.163114497E0,3.172976971E0,-2.824937820E0,1.620374441E0,4.546830751E0
8.168097830E0,3.399892807E0,-2.829510689E0,1.697806358E0,4.737926579E0
8.173081164E0,3.568783760E0,-2.753026009E0,1.694233656E0,4.815163280E0
8.178064445E0,3.729655266E0,-2.559992313E0,1.688110113E0,4.828416386E0
8.183059080E0,3.822267532E0,-2.255695820E0,1.662552357E0,4.739406404E0
8.188042987E0,3.798625469E0,-1.902723312E0,1.612109780E0,4.544096104E0
8.193026893E0,3.704045296E0,-1.439194679E0,1.562835932E0,4.270092391E0
8.198010747E0,3.552637577E0,-1.016136169E0,1.574564457E0,4.016593046E0
8.203017414E0,3.408867836E0,-5.906162262E-1,1.541826725E0,3.787669085E0
8.208002466E0,3.203360081E0,-2.104892731E-1,1.517399073E0,3.550819833E0
8.212987518E0,3.002910137E0,9.542083740E-2,1.482257366E0,3.350173328E0
8.217972570E0,2.814706802E0,3.080782890E-1,1.386398554E0,3.152711145E0
8.222936737E0,2.636383057E0,3.893651962E-1,1.297138810E0,2.963897766E0
8.227920695E0,2.434255600E0,3.440732956E-1,1.162176251E0,2.719308809E0
8.232904705E0,2.230242252E0,2.323923111E-1,1.022370219E0,2.464391924E0
8.237888716E0,2.010227203E0,8.565950394E-2,9.426154494E-1,2.221907929E0
8.242879080E0,1.776959419E0,-1.054520607E-1,9.249982834E-1,2.006072466E0
8.247863455E0,1.569072723E0,-2.976231575E-1,9.811718464E-1,1.874371080E0
8.252847778E0,1.324597359E0,-4.787344933E-1,1.056076050E0,1.760409470E0
